time,aX,aY,aZ,gX,gY,gZ
196553,0.99768066,-0.030639648,-0.09326172,0.5493164,-2.5024414,-0.4272461
196573,0.99645996,-0.036010742,-0.08898926,0.79345703,-2.4414062,0.0
196583,0.9984131,-0.040161133,-0.09399414,0.36621094,-2.5024414,0.0
196593,1.0,-0.048217773,-0.09008789,0.48828125,-2.4414062,0.0
196603,0.9996338,-0.04724121,-0.092041016,0.61035156,-2.5024414,-0.12207031
196613,0.99890137,-0.03930664,-0.095947266,0.5493164,-2.5634766,-0.30517578
196623,0.9954834,-0.0357666,-0.09729004,0.79345703,-2.5024414,-0.4272461
196633,0.994751,-0.037231445,-0.0982666,1.0375977,-2.380371,-0.30517578
196643,0.99694824,-0.036376953,-0.091918945,0.79345703,-2.1972656,-0.24414062
196653,1.0,-0.033935547,-0.09020996,0.6713867,-2.319336,-0.24414062
196663,0.9954834,-0.034301758,-0.095581055,0.6713867,-2.2583008,0.0
196673,0.994751,-0.028320312,-0.10180664,0.18310547,-2.1362305,0.12207031
196683,1.0046387,-0.025512695,-0.080200195,-0.4272461,-2.0751953,0.12207031
196693,1.0153809,-0.049682617,-0.07739258,-0.061035156,-2.1972656,0.4272461
196713,0.9963379,-0.057861328,-0.10437012,-0.24414062,-2.5634766,-1.0375977
196733,0.993042,-0.025512695,-0.095214844,1.6479492,-2.380371,-1.5869141
196743,1.0064697,-0.023071289,-0.08935547,1.8310547,-2.4414062,-1.2207031
196753,1.0113525,-0.033813477,-0.09277344,1.2207031,-2.4414062,-0.79345703
196763,1.0037842,-0.045898438,-0.09667969,0.4272461,-2.380371,-0.48828125
196773,0.99450684,-0.04626465,-0.10205078,0.0,-2.380371,-0.5493164
196783,0.9885254,-0.03149414,-0.1027832,0.24414062,-2.319336,-0.79345703
196793,0.9975586,-0.021850586,-0.08251953,0.8544922,-2.319336,-0.91552734
196803,1.010376,-0.043701172,-0.08239746,1.6479492,-2.2583008,-0.48828125
196813,1.0084229,-0.060058594,-0.08496094,0.4272461,-2.380371,-0.4272461
196823,0.9986572,-0.061767578,-0.09008789,-0.5493164,-2.5634766,-0.8544922
196833,0.9929199,-0.053466797,-0.09729004,0.18310547,-2.6855469,-1.5258789
196843,0.9880371,-0.034301758,-0.095336914,0.8544922,-2.746582,-1.8310547
196853,0.99487305,-0.01977539,-0.09753418,1.159668,-2.6855469,-1.7700195
196863,1.0024414,-0.020874023,-0.095947266,0.91552734,-2.5024414,-0.9765625
196883,0.9954834,-0.052246094,-0.095214844,-0.36621094,-2.380371,-1.0375977
196903,0.9946289,-0.037841797,-0.095336914,0.7324219,-2.5024414,-1.4648438
196913,0.99975586,-0.032348633,-0.09655762,0.79345703,-2.380371,-1.4038086
196923,1.0050049,-0.033569336,-0.09387207,0.79345703,-2.4414062,-1.3427734
196933,1.0029297,-0.036743164,-0.091430664,0.6713867,-2.4414062,-1.2207031
196943,1.0004883,-0.037719727,-0.09716797,0.48828125,-2.4414062,-1.2207031
196953,0.9980469,-0.037109375,-0.09423828,0.48828125,-2.4414062,-1.159668
196963,0.99816895,-0.038208008,-0.091918945,0.48828125,-2.4414062,-1.0986328
196973,0.9974365,-0.03845215,-0.09277344,0.48828125,-2.4414062,-1.0986328
196983,0.99658203,-0.037719727,-0.095458984,0.30517578,-2.4414062,-1.0986328
196993,0.99645996,-0.03894043,-0.09765625,0.30517578,-2.380371,-1.159668
197003,0.9954834,-0.037475586,-0.095214844,0.24414062,-2.319336,-1.0986328
197013,0.9958496,-0.03881836,-0.09375,0.61035156,-2.319336,-1.0986328
197060,1.0090332,-0.041992188,-0.0925293,0.18310547,-2.380371,-0.36621094
197069,1.0046387,-0.056762695,-0.096069336,-0.4272461,-2.319336,-0.4272461
197079,0.9963379,-0.061279297,-0.10131836,-0.7324219,-2.4414062,-0.79345703
197089,0.9902344,-0.05529785,-0.09716797,0.0,-2.380371,-1.7700195
197109,1.0003662,-0.032958984,-0.092163086,1.6479492,-2.380371,-2.1362305
197129,0.9984131,-0.027832031,-0.08935547,1.2817383,-2.380371,-1.8310547
197139,0.9970703,-0.0234375,-0.08886719,0.8544922,-2.4414062,-1.5869141
197149,0.99609375,-0.018798828,-0.09460449,0.18310547,-2.5024414,-1.2207031
197159,0.9975586,-0.020996094,-0.09729004,-0.12207031,-2.5634766,-0.8544922
197169,0.9996338,-0.029418945,-0.091674805,-0.4272461,-2.5024414,-0.4272461
197179,1.0021973,-0.03479004,-0.099243164,-0.48828125,-2.5024414,-0.12207031
197189,1.0014648,-0.036010742,-0.095581055,-0.36621094,-2.5634766,-0.24414062
197199,1.0043945,-0.049438477,-0.09399414,0.6713867,-2.5024414,-0.18310547
197209,0.9998779,-0.05444336,-0.095214844,0.6713867,-2.5024414,-0.30517578
197219,0.9941406,-0.047729492,-0.0949707,0.79345703,-2.5024414,-0.79345703
197229,0.9937744,-0.04248047,-0.09765625,1.4038086,-2.4414062,-1.0986328
197239,0.9949951,-0.03540039,-0.09350586,1.7700195,-2.380371,-1.2207031
197249,0.9946289,-0.028686523,-0.09094238,1.7089844,-2.319336,-1.159668
197269,0.99890137,-0.027709961,-0.08728027,0.91552734,-2.4414062,-0.24414062
197289,1.0021973,-0.03845215,-0.096069336,0.18310547,-2.5634766,0.18310547
197299,0.9946289,-0.034423828,-0.10095215,-0.30517578,-2.4414062,0.18310547
197309,0.9906006,-0.030395508,-0.10180664,-0.30517578,-2.380371,0.18310547
197319,0.9953613,-0.041381836,-0.09790039,0.48828125,-2.2583008,0.24414062
197329,1.0025635,-0.046020508,-0.09265137,1.0375977,-2.1972656,0.24414062
197339,1.0032959,-0.04296875,-0.09509277,1.0986328,-2.1972656,0.12207031
197349,0.99853516,-0.030517578,-0.09448242,1.0986328,-2.319336,0.061035156
197359,0.9975586,-0.025756836,-0.08935547,0.79345703,-2.319336,0.18310547
197369,0.99816895,-0.029907227,-0.09277344,0.6713867,-2.4414062,0.48828125
197379,0.9984131,-0.03466797,-0.095214844,0.061035156,-2.319336,0.5493164
197389,0.9979248,-0.041259766,-0.09289551,0.061035156,-2.1972656,0.61035156
197399,0.9995117,-0.045043945,-0.09313965,-0.061035156,-2.2583008,0.6713867
197409,0.99731445,-0.048095703,-0.09484863,-0.12207031,-2.319336,0.5493164
197419,0.99487305,-0.046875,-0.09436035,15.50293,-2.319336,0.18310547
197439,1.0026855,-0.040771484,-0.08618164,0.5493164,-2.319336,-0.061035156
197459,0.99938965,-0.041992188,-0.095947266,0.5493164,-2.5024414,-0.18310547
197469,0.99560547,-0.040893555,-0.099853516,0.18310547,-2.5024414,-0.24414062
197479,0.99487305,-0.043823242,-0.099853516,0.12207031,-2.319336,-0.24414062
197489,0.99560547,-0.045654297,-0.095458984,0.18310547,-2.1972656,-0.4272461
197499,0.99780273,-0.04736328,-0.09802246,0.30517578,-2.1362305,-0.5493164
197509,0.99975586,-0.04333496,-0.09362793,0.4272461,-2.0751953,-0.6713867
197519,1.0008545,-0.03869629,-0.08996582,0.48828125,-2.1362305,-0.79345703
197529,1.0009766,-0.044921875,-0.08581543,1.0375977,-2.2583008,-0.6713867
197539,1.0023193,-0.047607422,-0.0871582,1.0375977,-2.319336,-0.7324219
197549,0.99816895,-0.04284668,-0.092285156,0.6713867,-2.380371,-0.8544922
197559,0.99487305,-0.038085938,-0.096191406,0.48828125,-2.319336,-0.9765625
197569,0.9949951,-0.036621094,-0.095214844,0.61035156,-2.2583008,-0.91552734
197579,0.9959717,-0.03930664,-0.09631348,0.8544922,-2.1972656,-0.7324219
197599,0.9995117,-0.040283203,-0.08959961,0.6713867,-2.1972656,-0.7324219
197619,1.0028076,-0.040161133,-0.095336914,0.30517578,-2.4414062,-0.61035156
197629,1.0019531,-0.045166016,-0.09411621,0.061035156,-2.319336,-0.6713867
197639,0.99645996,-0.04711914,-0.096191406,-0.061035156,-2.319336,-0.7324219
197649,0.9946289,-0.049438477,-0.095458984,0.0,-2.2583008,-0.8544922
197659,0.9951172,-0.048583984,-0.09729004,0.24414062,-2.2583008,-1.0986328
197669,0.9974365,-0.04699707,-0.092285156,0.79345703,-2.1972656,-1.2817383
197679,0.9975586,-0.040527344,-0.08959961,1.0375977,-2.319336,-1.4648438
197689,1.0007324,-0.030883789,-0.08898926,1.0986328,-2.380371,-1.3427734
197699,1.0014648,-0.028808594,-0.088378906,1.0375977,-2.380371,-1.159668
197709,0.9987793,-0.027709961,-0.092163086,0.4272461,-2.5024414,-0.8544922
197719,0.99523926,-0.029663086,-0.092041016,0.061035156,-2.4414062,-0.5493164
197729,0.9954834,-0.037963867,-0.091552734,0.18310547,-2.380371,-0.36621094
197739,0.99658203,-0.04650879,-0.09411621,0.4272461,-2.5024414,-0.24414062
197749,0.9992676,-0.047607422,-0.0925293,0.61035156,-2.5024414,-0.48828125
197769,0.998291,-0.04675293,-0.095947266,0.5493164,-2.380371,-0.79345703
197779,0.9946289,-0.047973633,-0.09362793,0.4272461,-2.4414062,-0.91552734
197789,0.99487305,-0.04333496,-0.095336914,0.30517578,-2.4414062,-1.159668
197799,0.9980469,-0.040283203,-0.08984375,0.5493164,-2.380371,-1.2207031
197809,1.0006104,-0.03930664,-0.0949707,0.79345703,-2.319336,-1.159668
197819,1.0007324,-0.036010742,-0.09692383,0.4272461,-2.319336,-1.0986328
197829,1.0002441,-0.03515625,-0.08935547,0.30517578,-2.2583008,-1.0375977
197839,0.9992676,-0.041381836,-0.09106445,0.79345703,-2.319336,-0.91552734
197849,0.9970703,-0.041137695,-0.091674805,0.6713867,-2.380371,-0.91552734
197859,0.9954834,-0.03942871,-0.0925293,0.5493164,-2.2583008,-1.0375977
197869,0.99645996,-0.03894043,-0.08996582,0.48828125,-2.319336,-1.0986328
197879,0.99890137,-0.040527344,-0.09020996,0.5493164,-2.4414062,-1.0375977
197889,1.0006104,-0.040039062,-0.09289551,0.5493164,-2.380371,-0.91552734
197899,0.9975586,-0.03540039,-0.09411621,0.4272461,-2.380371,-0.91552734
197909,0.99731445,-0.037963867,-0.09362793,0.30517578,-2.319336,-0.7324219
197929,0.99853516,-0.034423828,-0.09643555,0.30517578,-2.319336,-0.91552734
197949,1.0075684,-0.042236328,-0.09020996,0.91552734,-2.380371,-0.5493164
197959,1.0009766,-0.048828125,-0.09106445,0.24414062,-2.4414062,-0.5493164
197969,0.99243164,-0.048706055,-0.09350586,-0.36621094,-2.380371,-0.8544922
197979,0.9904785,-0.049438477,-0.091796875,0.12207031,-2.2583008,-1.0375977
197989,0.9938965,-0.047729492,-0.09069824,0.5493164,-2.2583008,-1.3427734
197999,1.0006104,-0.040527344,-0.0904541,0.61035156,-2.2583008,-1.5869141
198009,1.0050049,-0.03552246,-0.09362793,0.4272461,-2.380371,-1.5869141
198019,1.0012207,-0.03515625,-0.09362793,0.30517578,-2.319336,-1.5258789
198029,0.9971924,-0.03930664,-0.09387207,0.18310547,-2.2583008,-1.4648438
198039,0.9971924,-0.041992188,-0.08483887,0.18310547,-2.319336,-1.4648438
198049,0.998291,-0.04272461,-0.09069824,0.61035156,-2.380371,-1.5258789
198059,0.9980469,-0.037719727,-0.09362793,0.36621094,-2.4414062,-1.6479492
198069,0.9970703,-0.033935547,-0.09289551,0.61035156,-2.4414062,-1.7089844
198089,0.9951172,-0.030639648,-0.09301758,0.5493164,-2.4414062,-1.0375977
198109,1.0003662,-0.023071289,-0.09265137,0.36621094,-2.4414062,-0.30517578
198119,1.0031738,-0.03137207,-0.09265137,0.30517578,-2.380371,0.061035156
198129,1.0030518,-0.03930664,-0.091308594,0.4272461,-2.380371,0.30517578
198139,1.0020752,-0.040161133,-0.08862305,0.30517578,-2.380371,0.36621094
198149,1.0001221,-0.03955078,-0.095581055,0.0,-2.319336,0.24414062
198159,0.99560547,-0.04724121,-0.09375,0.24414062,-2.380371,0.18310547
198169,0.9963379,-0.051513672,-0.08972168,0.30517578,-2.4414062,0.061035156
198179,0.99902344,-0.052001953,-0.087402344,0.4272461,-2.380371,-0.18310547
198189,0.99780273,-0.04711914,-0.0892334,0.6713867,-2.5024414,-0.5493164
198199,0.99890137,-0.03930664,-0.084472656,0.79345703,-2.5634766,-0.79345703
198209,0.9991455,-0.037353516,-0.0892334,0.6713867,-2.6245117,-0.8544922
198219,0.9971924,-0.038085938,-0.08972168,0.61035156,-2.6245117,-0.8544922
198229,0.99768066,-0.03540039,-0.091430664,0.12207031,-2.6245117,-0.7324219
198239,0.9968262,-0.034423828,-0.09350586,-0.18310547,-2.746582,-0.6713867
198259,0.9998779,-0.049804688,-0.092041016,0.30517578,-2.5024414,-0.79345703
198279,0.99975586,-0.046142578,-0.091918945,0.9765625,-2.5024414,-1.2817383
198289,0.9968262,-0.040649414,-0.09240723,1.2207031,-2.5024414,-1.4648438
198299,0.99572754,-0.03466797,-0.09057617,1.4648438,-2.5024414,-1.5258789
198309,0.99768066,-0.028930664,-0.08862305,1.4038086,-2.5634766,-1.3427734
198319,0.9980469,-0.025512695,-0.087890625,1.159668,-2.5024414,-1.0986328
198329,0.9996338,-0.027954102,-0.087646484,0.61035156,-2.6245117,-0.8544922
198360,0.9963379,-0.043945312,-0.09118652,-0.30517578,-2.5634766,-0.4272461
198369,0.9967041,-0.045532227,-0.09472656,-0.061035156,-2.5634766,-0.61035156
198379,0.9968262,-0.044555664,-0.091308594,0.24414062,-2.5634766,-0.6713867
198389,1.0002441,-0.045043945,-0.09411621,0.79345703,-2.6245117,-0.79345703
198399,0.9998779,-0.041381836,-0.091308594,1.0375977,-2.6245117,-0.91552734
198419,1.0002441,-0.038085938,-0.0892334,1.0986328,-2.746582,-0.8544922
198439,0.99658203,-0.040039062,-0.08886719,0.79345703,-2.746582,-0.9765625
198449,0.9958496,-0.032714844,-0.09020996,0.61035156,-2.6855469,-0.9765625
198459,0.9970703,-0.03112793,-0.09375,0.5493164,-2.746582,-0.91552734
198469,0.99768066,-0.033935547,-0.09448242,0.4272461,-2.746582,-0.7324219
198479,0.9995117,-0.039916992,-0.092285156,0.61035156,-2.6245117,-0.6713867
198489,0.9991455,-0.037963867,-0.08886719,0.4272461,-2.6245117,-0.5493164
198499,0.99780273,-0.036621094,-0.08886719,0.24414062,-2.6855469,-0.5493164
198509,0.9971924,-0.03857422,-0.091674805,0.4272461,-2.6855469,-0.48828125
198519,0.99609375,-0.03527832,-0.09094238,0.24414062,-2.6855469,-0.48828125
198529,0.9970703,-0.0345459,-0.08996582,0.30517578,-2.6245117,-0.36621094
198539,0.99890137,-0.036987305,-0.08911133,0.36621094,-2.746582,-0.24414062
198549,0.99938965,-0.035888672,-0.092041016,-0.061035156,-2.8076172,-0.18310547
198559,1.0,-0.03955078,-0.09240723,0.061035156,-2.8076172,-0.18310547
198569,0.9998779,-0.047851562,-0.09301758,0.061035156,-2.746582,-0.36621094
198589,0.9968262,-0.04626465,-0.096069336,0.5493164,-2.8076172,-0.79345703
198609,0.9975586,-0.041748047,-0.095581055,0.79345703,-2.5634766,-1.0986328
198619,0.9967041,-0.040649414,-0.09387207,0.9765625,-2.5024414,-1.159668
198629,0.99780273,-0.03881836,-0.09240723,1.2817383,-2.5024414,-1.159668
198639,0.9980469,-0.0390625,-0.08935547,1.159668,-2.5024414,-1.159668
198649,0.99938965,-0.03869629,-0.08972168,1.0375977,-2.5634766,-1.2207031
198659,0.99975586,-0.037109375,-0.087524414,0.6713867,-2.6855469,-1.159668
198669,0.9984131,-0.03515625,-0.091308594,0.5493164,-2.6855469,-1.0986328
198679,0.99853516,-0.036987305,-0.091796875,0.36621094,-2.6245117,-1.0375977
198689,0.9974365,-0.037231445,-0.08911133,0.061035156,-2.6245117,-1.0375977
198699,0.9970703,-0.03955078,-0.096069336,-0.061035156,-2.6855469,-1.0375977
198709,0.99694824,-0.040649414,-0.09326172,0.18310547,-2.6245117,-0.9765625
198719,0.99768066,-0.039794922,-0.09362793,0.24414062,-2.6855469,-0.91552734
198729,0.99816895,-0.040649414,-0.096191406,0.48828125,-2.746582,-0.9765625
198749,0.9970703,-0.03552246,-0.09033203,1.159668,-2.8686523,-0.9765625
198769,0.9962158,-0.037109375,-0.08898926,0.8544922,-2.8686523,-0.79345703
198779,0.9987793,-0.036376953,-0.09057617,0.79345703,-2.746582,-0.79345703
198789,0.99853516,-0.036499023,-0.09399414,0.6713867,-2.6245117,-0.7324219
198799,0.998291,-0.037719727,-0.09399414,0.4272461,-2.8076172,-0.61035156
198809,0.9984131,-0.037353516,-0.09411621,0.4272461,-2.746582,-0.61035156
198819,0.9971924,-0.03552246,-0.0949707,0.24414062,-2.746582,-0.6713867
198829,0.9968262,-0.036621094,-0.09423828,0.4272461,-2.6855469,-0.61035156
198839,0.99731445,-0.040039062,-0.0949707,0.48828125,-2.6855469,-0.5493164
198849,0.9995117,-0.040893555,-0.09375,0.12207031,-2.6245117,-0.5493164
198859,0.9984131,-0.04284668,-0.091796875,0.18310547,-2.6245117,-0.61035156
198869,0.99853516,-0.045654297,-0.09411621,0.48828125,-2.6245117,-0.61035156
198879,0.9984131,-0.044555664,-0.09484863,0.24414062,-2.6245117,-0.7324219
198889,0.99902344,-0.04248047,-0.09484863,0.30517578,-2.6855469,-0.9765625
198899,0.99658203,-0.040161133,-0.09399414,0.5493164,-2.5634766,-1.0375977
198919,0.99890137,-0.03918457,-0.08984375,0.61035156,-2.6245117,-1.0986328
198939,0.9991455,-0.036499023,-0.0925293,0.7324219,-2.6855469,-1.0986328
198949,0.99816895,-0.032470703,-0.095703125,0.61035156,-2.6855469,-1.159668
198959,0.99658203,-0.029541016,-0.09716797,0.48828125,-2.746582,-0.9765625
198969,0.99609375,-0.029296875,-0.09863281,0.36621094,-2.746582,-0.7324219
198979,0.9971924,-0.038330078,-0.09362793,0.48828125,-2.6855469,-0.61035156
198989,0.99780273,-0.04309082,-0.09094238,0.30517578,-2.5024414,-0.61035156
198999,1.0,-0.044921875,-0.09082031,0.4272461,-2.5024414,-0.6713867
199009,0.9998779,-0.045532227,-0.092163086,0.6713867,-2.5634766,-0.79345703
199019,0.99731445,-0.04260254,-0.09411621,0.79345703,-2.6245117,-0.9765625
199029,0.9959717,-0.03466797,-0.09350586,0.79345703,-2.6245117,-1.0375977
199039,0.99768066,-0.029174805,-0.0949707,0.61035156,-2.6855469,-0.9765625
199049,0.99768066,-0.033081055,-0.096191406,0.61035156,-2.5634766,-0.8544922
199059,0.99975586,-0.037719727,-0.09313965,0.36621094,-2.5634766,-0.5493164
199079,0.99816895,-0.03955078,-0.09484863,0.36621094,-2.5634766,-0.61035156
199099,1.0,-0.03930664,-0.095458984,0.24414062,-2.5024414,-0.79345703
199109,0.9967041,-0.03869629,-0.09460449,0.30517578,-2.5634766,-0.79345703
199119,0.9959717,-0.03955078,-0.09484863,0.36621094,-2.5634766,-0.7324219
199129,0.9971924,-0.03942871,-0.09460449,0.48828125,-2.5634766,-0.7324219
199139,1.0001221,-0.03881836,-0.09289551,0.5493164,-2.5634766,-0.8544922
199149,1.0002441,-0.03869629,-0.096069336,0.61035156,-2.5634766,-0.7324219
199159,0.99938965,-0.03918457,-0.09765625,0.5493164,-2.5634766,-0.79345703
199169,0.9971924,-0.03857422,-0.09448242,0.30517578,-2.5634766,-0.79345703
199179,0.99768066,-0.037841797,-0.095581055,0.12207031,-2.5634766,-0.8544922
199189,0.99731445,-0.041259766,-0.09460449,0.4272461,-2.5024414,-0.8544922
199199,0.9987793,-0.037963867,-0.09399414,0.30517578,-2.5024414,-0.91552734
199209,0.9980469,-0.036987305,-0.09472656,0.24414062,-2.5634766,-0.8544922
199219,0.9970703,-0.038330078,-0.09362793,0.36621094,-2.5634766,-0.8544922
199229,0.9967041,-0.040039062,-0.0949707,0.36621094,-2.5634766,-0.8544922
199249,0.9968262,-0.034423828,-0.09423828,0.6713867,-2.5634766,-0.79345703
199259,0.99780273,-0.0357666,-0.095581055,0.5493164,-2.5024414,-0.7324219
199269,0.99780273,-0.03942871,-0.09484863,0.48828125,-2.5024414,-0.7324219
199279,0.9992676,-0.041137695,-0.09643555,0.4272461,-2.4414062,-0.61035156
199289,0.9991455,-0.037231445,-0.09472656,0.24414062,-2.5024414,-0.61035156
199299,1.0,-0.033691406,-0.10021973,0.24414062,-2.5024414,-0.5493164
199309,0.99768066,-0.038330078,-0.09838867,0.61035156,-2.5024414,-0.48828125
199319,0.9962158,-0.041503906,-0.095214844,0.5493164,-2.5024414,-0.5493164
199329,0.99890137,-0.041992188,-0.09277344,0.4272461,-2.380371,-0.61035156
199339,0.99853516,-0.041992188,-0.09387207,0.61035156,-2.380371,-0.7324219
199349,0.9979248,-0.03918457,-0.091308594,0.8544922,-2.5024414,-0.6713867
199359,0.99731445,-0.037353516,-0.09423828,0.61035156,-2.5634766,-0.7324219
199369,0.9971924,-0.037963867,-0.095947266,0.36621094,-2.5024414,-0.6713867
199379,0.9963379,-0.03894043,-0.09631348,0.36621094,-2.4414062,-0.6713867
199389,0.99731445,-0.03955078,-0.09777832,0.30517578,-2.2583008,-0.79345703
199409,0.9995117,-0.041870117,-0.09448242,0.5493164,-2.319336,-0.79345703
199429,0.99853516,-0.037719727,-0.0949707,0.5493164,-2.380371,-0.79345703
199439,0.99645996,-0.037963867,-0.09472656,0.5493164,-2.380371,-0.91552734
199449,0.99694824,-0.036499023,-0.0949707,0.5493164,-2.319336,-0.8544922
199459,0.9980469,-0.03186035,-0.09301758,0.6713867,-2.380371,-0.7324219
199469,1.0,-0.033447266,-0.09460449,0.5493164,-2.380371,-0.61035156
199479,1.0003662,-0.041259766,-0.0925293,0.48828125,-2.4414062,-0.5493164
199489,0.99975586,-0.044433594,-0.091552734,0.36621094,-2.380371,-0.5493164
199499,0.99902344,-0.039794922,-0.09472656,0.24414062,-2.4414062,-0.6713867
199509,0.9986572,-0.03564453,-0.0949707,0.24414062,-2.4414062,-0.6713867
199519,0.99780273,-0.036499023,-0.09509277,0.18310547,-2.4414062,-0.5493164
199529,0.9975586,-0.04296875,-0.095703125,0.061035156,-2.4414062,-0.5493164
199539,0.99768066,-0.047607422,-0.09655762,0.36621094,-2.380371,-0.61035156
199549,0.9998779,-0.045898438,-0.096191406,0.5493164,-2.380371,-0.7324219
199569,0.9963379,-0.034057617,-0.09631348,0.91552734,-2.319336,-0.9765625
199589,0.9970703,-0.03527832,-0.09277344,0.61035156,-2.4414062,-0.61035156
199599,0.99731445,-0.03503418,-0.09289551,0.4272461,-2.4414062,-0.5493164
199609,0.99853516,-0.03552246,-0.095336914,0.36621094,-2.380371,-0.4272461
199619,1.0,-0.0345459,-0.09289551,0.30517578,-2.4414062,-0.36621094
199629,1.0003662,-0.038208008,-0.09313965,0.18310547,-2.4414062,-0.30517578
199639,0.9992676,-0.0423584,-0.0949707,0.18310547,-2.5024414,-0.24414062
199649,0.9986572,-0.043945312,-0.09484863,0.24414062,-2.5024414,-0.36621094
199659,0.99816895,-0.04260254,-0.09802246,0.36621094,-2.5024414,-0.4272461
199669,0.99645996,-0.040039062,-0.09863281,0.48828125,-2.4414062,-0.48828125
199679,0.9942627,-0.034423828,-0.095825195,0.7324219,-2.5634766,-0.48828125
199689,0.9949951,-0.033447266,-0.09423828,0.6713867,-2.5024414,-0.4272461
199699,0.99768066,-0.037597656,-0.092163086,0.6713867,-2.5024414,-0.24414062
199760,0.9996338,-0.045166016,-0.095947266,0.36621094,-2.2583008,-0.48828125
199769,0.99731445,-0.043945312,-0.09313965,0.61035156,-2.380371,-0.5493164
199779,0.99768066,-0.0390625,-0.09240723,0.7324219,-2.5024414,-0.5493164
199789,0.99731445,-0.036499023,-0.09411621,0.6713867,-2.5024414,-0.61035156
199799,0.99938965,-0.037841797,-0.09387207,0.6713867,-2.6245117,-0.48828125
199809,1.0001221,-0.03881836,-0.096069336,0.4272461,-2.5024414,-0.4272461
199819,0.998291,-0.037719727,-0.09692383,0.12207031,-2.5024414,-0.48828125
199829,0.9963379,-0.038085938,-0.09484863,0.24414062,-2.4414062,-0.36621094
199839,0.99768066,-0.040527344,-0.095825195,0.24414062,-2.5024414,-0.24414062
199849,0.99890137,-0.04321289,-0.09484863,0.36621094,-2.380371,-0.30517578
199859,0.99853516,-0.044311523,-0.09338379,0.48828125,-2.5024414,-0.36621094
199869,0.99816895,-0.04321289,-0.09338379,0.61035156,-2.4414062,-0.5493164
199879,0.99902344,-0.041992188,-0.09411621,0.6713867,-2.380371,-0.48828125
199899,0.99780273,-0.04675293,-0.09729004,0.5493164,-2.5024414,-0.5493164
199919,0.9975586,-0.046142578,-0.095458984,0.7324219,-2.4414062,-0.91552734
199929,0.9970703,-0.044433594,-0.096069336,0.9765625,-2.5024414,-1.0375977
199939,0.9984131,-0.03894043,-0.095336914,0.8544922,-2.380371,-1.159668
199949,0.9980469,-0.036865234,-0.09509277,0.48828125,-2.4414062,-1.159668
199959,0.9975586,-0.040405273,-0.095825195,0.36621094,-2.4414062,-1.0986328
199969,0.9968262,-0.041015625,-0.09313965,0.12207031,-2.5024414,-1.0986328
199979,0.9986572,-0.03869629,-0.095947266,0.18310547,-2.5024414,-1.0986328
199989,0.99816895,-0.04345703,-0.095825195,0.4272461,-2.4414062,-1.0375977
199999,0.9987793,-0.044677734,-0.09338379,0.61035156,-2.5634766,-0.9765625
200009,0.99731445,-0.041748047,-0.08691406,0.61035156,-2.6245117,-1.0986328
200019,0.99816895,-0.03845215,-0.10119629,0.8544922,-2.746582,-1.2207031
200029,0.9980469,-0.029907227,-0.09472656,0.6713867,-2.6855469,-1.2207031
200039,0.9980469,-0.032104492,-0.09887695,1.0986328,-2.6245117,-0.9765625
200049,0.9974365,-0.036254883,-0.09472656,0.79345703,-2.6245117,-0.61035156
200069,0.99780273,-0.041015625,-0.09484863,0.12207031,-2.6855469,-0.48828125
200089,0.99731445,-0.0423584,-0.09362793,0.36621094,-2.5634766,-0.5493164
200099,0.9975586,-0.041870117,-0.0949707,0.5493164,-2.6245117,-0.61035156
200109,0.998291,-0.040161133,-0.09777832,0.6713867,-2.746582,-0.5493164
200119,0.99853516,-0.036132812,-0.10058594,0.61035156,-2.746582,-0.5493164
200129,0.99780273,-0.03894043,-0.09655762,0.9765625,-2.6245117,-0.4272461
200139,0.9968262,-0.036865234,-0.09289551,0.7324219,-2.6245117,-0.30517578
200149,0.9975586,-0.034179688,-0.095825195,0.48828125,-2.746582,-0.36621094
200159,0.9991455,-0.036499023,-0.09729004,0.48828125,-2.6245117,-0.24414062
200169,0.9992676,-0.041015625,-0.099243164,-0.12207031,-2.6855469,-0.18310547
200179,0.9980469,-0.044189453,-0.09509277,-0.36621094,-2.5634766,-0.24414062
200189,0.9980469,-0.05102539,-0.0982666,-0.30517578,-2.5024414,-0.30517578
200199,0.99890137,-0.048461914,-0.09777832,0.0,-2.5024414,-0.4272461
200209,0.9970703,-0.0423584,-0.099365234,0.18310547,-2.4414062,-0.7324219
200229,0.9958496,-0.04675293,-0.09411621,0.9765625,-2.5024414,-0.8544922
200249,1.0009766,-0.038208008,-0.09680176,0.8544922,-2.6245117,-1.0375977
200259,0.9992676,-0.036621094,-0.09692383,0.5493164,-2.6855469,-0.9765625
200269,0.99658203,-0.036254883,-0.09680176,0.36621094,-2.6245117,-0.8544922
200279,0.9954834,-0.036499023,-0.095703125,0.30517578,-2.6855469,-0.79345703
200289,0.99572754,-0.037353516,-0.096191406,0.24414062,-2.6245117,-0.6713867
200299,0.9979248,-0.041259766,-0.09667969,0.24414062,-2.6245117,-0.48828125
200309,0.9979248,-0.044677734,-0.09460449,0.36621094,-2.6245117,-0.4272461
200319,0.9970703,-0.045288086,-0.09289551,0.48828125,-2.6245117,-0.5493164
200329,0.99768066,-0.040283203,-0.09631348,0.5493164,-2.5634766,-0.5493164
200339,0.9967041,-0.03967285,-0.09802246,0.7324219,-2.6245117,-0.5493164
200349,0.9970703,-0.03918457,-0.0982666,0.7324219,-2.5634766,-0.48828125
200359,0.9962158,-0.03881836,-0.09777832,0.48828125,-2.6245117,-0.4272461
200369,0.99658203,-0.040405273,-0.09680176,0.6713867,-2.6245117,-0.30517578
200379,0.99853516,-0.040771484,-0.096191406,0.61035156,-2.5634766,-0.24414062
200410,0.99780273,-0.044433594,-0.095458984,0.30517578,-2.6855469,-0.30517578
200419,0.9987793,-0.043945312,-0.09863281,0.24414062,-2.6245117,-0.4272461
200429,0.9975586,-0.0423584,-0.09875488,0.18310547,-2.5634766,-0.36621094
200439,0.9967041,-0.044677734,-0.099243164,0.30517578,-2.5024414,-0.4272461
200449,0.9959717,-0.04626465,-0.09765625,0.48828125,-2.5634766,-0.4272461
200459,0.99658203,-0.045532227,-0.095947266,0.5493164,-2.5634766,-0.5493164
200469,0.99768066,-0.045654297,-0.09472656,0.6713867,-2.5024414,-0.61035156
200479,0.9979248,-0.043701172,-0.09399414,0.6713867,-2.5024414,-0.61035156
200489,0.9987793,-0.041748047,-0.09667969,0.48828125,-2.5634766,-0.6713867
200499,0.9971924,-0.040771484,-0.09680176,0.24414062,-2.6245117,-0.7324219
200509,0.9971924,-0.044067383,-0.095581055,0.12207031,-2.5634766,-0.6713867
200519,0.99768066,-0.044555664,-0.095581055,0.12207031,-2.5024414,-0.79345703
200529,0.9971924,-0.04333496,-0.09863281,0.12207031,-2.6855469,-0.8544922
200539,0.99780273,-0.042114258,-0.09838867,0.24414062,-2.5634766,-0.79345703
200559,0.9975586,-0.038208008,-0.099731445,0.7324219,-2.4414062,-0.7324219
200579,0.9974365,-0.04260254,-0.095458984,0.7324219,-2.380371,-0.6713867
200589,0.9970703,-0.037963867,-0.09472656,0.61035156,-2.4414062,-0.6713867
200599,0.99816895,-0.038085938,-0.09716797,0.6713867,-2.4414062,-0.48828125
200609,0.99731445,-0.043701172,-0.09838867,0.61035156,-2.5024414,-0.4272461
200619,0.9975586,-0.044189453,-0.09765625,0.48828125,-2.5024414,-0.48828125
200629,0.99853516,-0.045654297,-0.10168457,0.4272461,-2.5024414,-0.61035156
200639,0.9986572,-0.04736328,-0.10241699,0.6713867,-2.5024414,-0.61035156
200649,0.9979248,-0.048095703,-0.099121094,0.8544922,-2.5024414,-0.6713867
200659,0.9980469,-0.048828125,-0.1015625,0.79345703,-2.4414062,-0.8544922
200669,0.9962158,-0.044799805,-0.09790039,0.91552734,-2.380371,-1.0986328
200679,0.9971924,-0.040283203,-0.09790039,1.0375977,-2.380371,-1.0986328
200689,0.9968262,-0.041259766,-0.095947266,1.159668,-2.319336,-1.0986328
200699,0.998291,-0.043701172,-0.09472656,0.91552734,-2.380371,-1.0375977
200719,0.99938965,-0.041381836,-0.09863281,0.4272461,-2.5634766,-1.159668
200739,0.99731445,-0.036132812,-0.09765625,0.24414062,-2.2583008,-0.9765625
200749,0.9986572,-0.03869629,-0.099365234,0.12207031,-2.5024414,-0.8544922
200759,0.9980469,-0.04345703,-0.09753418,0.18310547,-2.4414062,-0.7324219
200769,0.9970703,-0.042236328,-0.09509277,0.12207031,-2.5024414,-0.7324219
200779,0.9967041,-0.040405273,-0.09790039,0.30517578,-2.5634766,-0.6713867
200789,0.99694824,-0.039794922,-0.09753418,0.61035156,-2.5634766,-0.61035156
200799,0.99902344,-0.040771484,-0.09460449,0.48828125,-2.5024414,-0.5493164
200809,0.99731445,-0.041992188,-0.095703125,0.48828125,-2.6245117,-0.61035156
200819,0.9987793,-0.042114258,-0.09838867,0.4272461,-2.5634766,-0.6713867
200829,0.99853516,-0.040283203,-0.100097656,0.36621094,-2.6245117,-0.61035156
200839,0.9962158,-0.038208008,-0.09863281,0.36621094,-2.6245117,-0.48828125
200849,0.9958496,-0.039794922,-0.09887695,0.30517578,-2.5634766,-0.36621094
200859,0.99694824,-0.043945312,-0.09802246,0.18310547,-2.5024414,-0.36621094
200869,0.99731445,-0.044799805,-0.09765625,0.12207031,-2.380371,-0.5493164
200889,0.99902344,-0.044189453,-0.099731445,0.18310547,-2.4414062,-0.5493164
200909,0.9963379,-0.040649414,-0.09716797,0.12207031,-2.380371,-0.6713867
200919,0.99768066,-0.045532227,-0.095947266,0.0,-2.2583008,-0.6713867
200929,1.0003662,-0.047973633,-0.09802246,-0.18310547,-2.319336,-0.7324219
200939,1.001831,-0.048095703,-0.09460449,-0.18310547,-2.380371,-0.8544922
200949,0.99816895,-0.046020508,-0.095214844,-0.061035156,-2.4414062,-0.9765625
200959,0.9954834,-0.046142578,-0.09802246,0.18310547,-2.5024414,-1.0986328
200969,0.9962158,-0.049194336,-0.09753418,0.4272461,-2.4414062,-1.159668
200979,0.9975586,-0.048828125,-0.09460449,0.61035156,-2.4414062,-1.2817383
200989,0.9967041,-0.04296875,-0.09448242,0.79345703,-2.5634766,-1.4038086
200999,0.99816895,-0.03845215,-0.0970459,0.8544922,-2.5634766,-1.4038086
201009,0.9984131,-0.036376953,-0.09765625,0.7324219,-2.5634766,-1.4648438
201019,0.9980469,-0.038330078,-0.09472656,0.5493164,-2.5634766,-1.3427734
201029,0.99694824,-0.0390625,-0.09362793,0.5493164,-2.5634766,-1.2817383
201049,0.9998779,-0.04296875,-0.1003418,0.24414062,-2.6245117,-1.159668
201069,0.9968262,-0.041259766,-0.099609375,0.79345703,-2.6245117,-1.0986328
201079,0.99694824,-0.040161133,-0.099121094,1.0375977,-2.6855469,-1.0986328
201089,0.99902344,-0.03869629,-0.09667969,0.91552734,-2.6245117,-1.0986328
201099,0.9979248,-0.03857422,-0.09509277,0.79345703,-2.6245117,-1.0375977
201109,0.9987793,-0.04248047,-0.095458984,0.6713867,-2.6245117,-0.9765625
201119,0.99938965,-0.044555664,-0.099121094,0.61035156,-2.5634766,-1.0375977
201129,0.9967041,-0.044189453,-0.10021973,0.5493164,-2.5634766,-1.0986328
201139,0.99731445,-0.04284668,-0.1003418,0.5493164,-2.5634766,-1.2207031
201149,0.99780273,-0.044067383,-0.099243164,0.79345703,-2.5024414,-1.2817383
201159,0.9987793,-0.044067383,-0.09375,0.9765625,-2.4414062,-1.3427734
201169,0.9992676,-0.039794922,-0.09472656,0.9765625,-2.5024414,-1.4648438
201179,0.99975586,-0.037475586,-0.09436035,0.9765625,-2.4414062,-1.4648438
201189,0.9991455,-0.036376953,-0.09655762,0.91552734,-2.5634766,-1.3427734
201199,0.99853516,-0.03479004,-0.095825195,0.7324219,-2.5634766,-1.0986328
201219,0.99938965,-0.038085938,-0.099853516,0.18310547,-2.5634766,-0.8544922
201239,0.9963379,-0.039794922,-0.09765625,0.18310547,-2.4414062,-0.8544922
201249,0.99816895,-0.03955078,-0.099243164,0.30517578,-2.4414062,-0.8544922
201259,0.99975586,-0.039794922,-0.09802246,0.24414062,-2.5024414,-0.8544922
201269,0.99768066,-0.040771484,-0.09667969,0.18310547,-2.5634766,-0.8544922
201279,0.9970703,-0.041992188,-0.09667969,0.12207031,-2.4414062,-0.91552734
201289,0.9975586,-0.039916992,-0.095458984,0.24414062,-2.5024414,-0.91552734
201299,0.99853516,-0.03881836,-0.0970459,0.4272461,-2.4414062,-0.91552734
201309,0.99890137,-0.040771484,-0.096191406,0.6713867,-2.5024414,-1.0375977
201319,0.9970703,-0.03967285,-0.09680176,0.4272461,-2.5024414,-0.91552734
201329,0.9980469,-0.03894043,-0.09753418,0.48828125,-2.4414062,-0.91552734
201339,0.9986572,-0.040039062,-0.10021973,0.5493164,-2.5634766,-0.91552734
201349,0.99780273,-0.042114258,-0.09777832,0.6713867,-2.5634766,-0.91552734
201359,0.99768066,-0.041748047,-0.09851074,0.6713867,-2.5634766,-1.0375977
201379,0.99609375,-0.040161133,-0.0970459,0.79345703,-2.5024414,-0.9765625
201399,0.9971924,-0.036865234,-0.09667969,0.79345703,-2.5634766,-1.0986328
201409,0.99731445,-0.033935547,-0.09753418,0.79345703,-2.6245117,-0.9765625
201419,0.9991455,-0.034423828,-0.09448242,0.7324219,-2.5634766,-0.91552734
201429,0.9987793,-0.0345459,-0.096191406,0.4272461,-2.5634766,-0.79345703
201439,0.9984131,-0.03540039,-0.099609375,0.24414062,-2.5634766,-0.61035156
201449,0.9975586,-0.037353516,-0.09814453,0.12207031,-2.5024414,-0.5493164
201459,0.9968262,-0.037475586,-0.09716797,0.12207031,-2.5634766,-0.5493164
201469,0.9975586,-0.03894043,-0.0982666,0.30517578,-2.5634766,-0.36621094
201479,0.99902344,-0.040771484,-0.0982666,0.4272461,-2.5024414,-0.36621094
201489,0.99816895,-0.03967285,-0.10144043,0.48828125,-2.5634766,-0.36621094
201499,0.9980469,-0.038208008,-0.09448242,0.36621094,-2.5024414,-0.4272461
201509,0.99768066,-0.040893555,-0.09240723,0.36621094,-2.5024414,-0.4272461
201519,0.9986572,-0.04321289,-0.10021973,0.30517578,-2.5634766,-0.4272461
201529,0.99780273,-0.041137695,-0.09436035,0.4272461,-2.5024414,-0.61035156
201549,0.99658203,-0.041748047,-0.09667969,0.61035156,-2.5024414,-0.7324219
201559,0.9975586,-0.040649414,-0.09765625,0.7324219,-2.5024414,-0.79345703
201569,0.9974365,-0.041625977,-0.095581055,0.61035156,-2.5024414,-0.91552734
201579,0.99816895,-0.041870117,-0.09692383,0.5493164,-2.5024414,-0.9765625
201589,0.998291,-0.041137695,-0.099121094,0.30517578,-2.5634766,-1.0375977
201599,0.99645996,-0.041992188,-0.095703125,0.18310547,-2.5024414,-1.0375977
201609,0.9979248,-0.041992188,-0.09838867,0.12207031,-2.4414062,-1.0986328
201619,0.99731445,-0.04248047,-0.095458984,0.30517578,-2.4414062,-1.0986328
201629,0.99780273,-0.040771484,-0.09765625,0.36621094,-2.5024414,-1.159668
201639,0.99780273,-0.041870117,-0.099731445,0.6713867,-2.5024414,-1.2817383
201649,0.9971924,-0.040649414,-0.09655762,0.61035156,-2.4414062,-1.4038086
201659,0.9984131,-0.041503906,-0.09667969,0.6713867,-2.5634766,-1.3427734
201669,0.9975586,-0.041625977,-0.100097656,0.61035156,-2.5024414,-1.4038086
201679,0.99731445,-0.040039062,-0.099121094,0.79345703,-2.4414062,-1.4648438
201710,0.99975586,-0.040527344,-0.09631348,1.159668,-2.6245117,-1.5258789
201729,0.9951172,-0.03186035,-0.09851074,0.8544922,-2.6855469,-1.5869141
201739,0.9954834,-0.028808594,-0.09838867,0.91552734,-2.6855469,-1.4038086
201749,0.998291,-0.032226562,-0.099609375,0.79345703,-2.5634766,-1.2817383
201759,1.0008545,-0.03466797,-0.09741211,0.6713867,-2.5634766,-1.159668
201769,1.0013428,-0.0357666,-0.09631348,0.30517578,-2.5634766,-1.0375977
201779,0.9974365,-0.03503418,-0.09753418,0.24414062,-2.6855469,-0.9765625
201789,0.9958496,-0.03479004,-0.099731445,0.18310547,-2.5634766,-0.91552734
201799,0.9959717,-0.036743164,-0.0982666,0.24414062,-2.6245117,-0.8544922
201809,0.9979248,-0.039916992,-0.09838867,0.36621094,-2.6245117,-0.8544922
201819,0.99938965,-0.03930664,-0.0970459,0.36621094,-2.6245117,-0.91552734
201829,0.9995117,-0.037475586,-0.09753418,0.48828125,-2.6855469,-0.91552734
201839,0.9979248,-0.037963867,-0.09741211,0.48828125,-2.6245117,-0.91552734
201849,0.9958496,-0.036132812,-0.10058594,0.4272461,-2.6245117,-0.8544922
201859,0.99609375,-0.033447266,-0.09875488,0.5493164,-2.6245117,-0.6713867
201879,0.998291,-0.037231445,-0.095581055,0.48828125,-2.5634766,-0.48828125
201889,0.99890137,-0.036499023,-0.09484863,0.061035156,-2.6245117,-0.36621094
201899,0.99780273,-0.03918457,-0.10144043,0.12207031,-2.6855469,-0.36621094
201909,0.99560547,-0.040405273,-0.09716797,0.24414062,-2.5634766,-0.36621094
201919,0.99731445,-0.036865234,-0.0982666,0.12207031,-2.5634766,-0.4272461
201929,0.99780273,-0.033813477,-0.09899902,0.24414062,-2.5024414,-0.48828125
201939,0.99853516,-0.033813477,-0.09790039,0.24414062,-2.6245117,-0.4272461
201949,0.9992676,-0.035888672,-0.0982666,0.36621094,-2.5634766,-0.24414062
201959,0.99768066,-0.038208008,-0.099487305,0.061035156,-2.5634766,-0.24414062
201969,0.99645996,-0.037963867,-0.099121094,-0.24414062,-2.5634766,-0.24414062
201979,0.99645996,-0.036743164,-0.09729004,-0.061035156,-2.5634766,-0.24414062
201989,0.99572754,-0.03894043,-0.09802246,0.18310547,-2.5024414,-0.18310547
201999,1.0008545,-0.041503906,-0.09753418,0.061035156,-2.5024414,-0.12207031
202009,1.0013428,-0.048217773,-0.10192871,0.12207031,-2.746582,-0.24414062
202019,0.9991455,-0.05029297,-0.10119629,0.24414062,-2.5634766,-0.7324219
202039,0.9967041,-0.040527344,-0.09887695,1.0986328,-2.5634766,-0.9765625
202059,0.99780273,-0.032470703,-0.09729004,1.159668,-2.5024414,-1.0986328
202069,0.99890137,-0.032592773,-0.09643555,1.0375977,-2.5634766,-0.91552734
202079,0.9974365,-0.03173828,-0.09472656,0.7324219,-2.5634766,-0.7324219
202089,0.9974365,-0.03112793,-0.09741211,0.6713867,-2.6245117,-0.61035156
202099,0.9979248,-0.03466797,-0.09692383,0.48828125,-2.6245117,-0.36621094
202109,0.99780273,-0.03540039,-0.10144043,0.24414062,-2.6245117,-0.30517578
202119,0.9959717,-0.036987305,-0.10107422,0.24414062,-2.5634766,-0.24414062
202129,0.9958496,-0.0390625,-0.10021973,0.48828125,-2.5024414,-0.12207031
202139,0.99731445,-0.037353516,-0.099487305,0.6713867,-2.6245117,-0.12207031
202149,0.99938965,-0.040039062,-0.099975586,0.5493164,-2.5634766,-0.061035156
202159,0.99816895,-0.040527344,-0.09399414,0.79345703,-2.6245117,-0.12207031
202169,0.99816895,-0.04260254,-0.09436035,0.9765625,-2.6245117,-0.12207031
202179,0.9991455,-0.04345703,-0.095947266,0.6713867,-2.6855469,-0.24414062
202199,0.99890137,-0.037475586,-0.103759766,0.6713867,-2.746582,-0.61035156
202219,0.9975586,-0.044921875,-0.103393555,0.8544922,-2.5634766,-0.5493164
202229,0.9996338,-0.04675293,-0.10290527,0.7324219,-2.5024414,-0.79345703
202239,0.9984131,-0.045410156,-0.10290527,0.9765625,-2.4414062,-0.9765625
202249,0.99645996,-0.03894043,-0.10241699,1.0375977,-2.380371,-1.159668
202259,0.9954834,-0.032226562,-0.099487305,0.8544922,-2.2583008,-1.2207031
202269,0.99572754,-0.03149414,-0.09851074,0.7324219,-2.2583008,-1.159668
202279,0.9996338,-0.03527832,-0.09851074,0.5493164,-2.2583008,-0.8544922
202289,1.0008545,-0.038085938,-0.095947266,0.18310547,-2.319336,-0.6713867
202299,0.99938965,-0.039916992,-0.09814453,0.061035156,-2.380371,-0.61035156
202309,0.99694824,-0.03955078,-0.099975586,0.061035156,-2.319336,-0.61035156
202319,0.99523926,-0.032958984,-0.09814453,0.18310547,-2.319336,-0.6713867
202329,0.99816895,-0.03137207,-0.10168457,0.12207031,-2.380371,-0.61035156
202339,0.99938965,-0.038330078,-0.10095215,0.30517578,-2.380371,-0.4272461
202349,0.9987793,-0.046020508,-0.09631348,-15.50293,-2.319336,-0.48828125
202369,0.9963379,-0.044555664,-0.099731445,0.48828125,-2.1972656,-0.8544922
202389,0.99768066,-0.04272461,-0.10107422,1.0375977,-2.1972656,-1.0375977
202399,0.99975586,-0.040893555,-0.09899902,1.2817383,-2.1972656,-1.159668
202409,0.99902344,-0.03479004,-0.099487305,1.5258789,-2.2583008,-1.159668
202419,0.998291,-0.029418945,-0.10253906,1.5869141,-2.319336,-0.9765625
202429,0.9974365,-0.024902344,-0.10107422,1.5258789,-2.380371,-0.79345703
202439,0.9979248,-0.02709961,-0.09899902,0.91552734,-2.380371,-0.48828125
202449,0.9975586,-0.03137207,-0.095581055,0.5493164,-2.319336,-0.24414062
202459,0.99609375,-0.034423828,-0.09423828,-0.12207031,-2.4414062,-0.12207031
202469,0.99780273,-0.03918457,-0.095336914,-0.30517578,-2.380371,0.0
202479,1.0001221,-0.0435791,-0.09680176,-0.24414062,-2.4414062,0.061035156
202489,0.9995117,-0.047851562,-0.100097656,-0.18310547,-2.4414062,0.0
202499,0.99768066,-0.04638672,-0.1003418,-0.12207031,-2.380371,-0.24414062
202509,0.9980469,-0.04333496,-0.1027832,-0.061035156,-2.4414062,-0.4272461
202529,0.9970703,-0.045532227,-0.099487305,0.7324219,-2.1972656,-0.91552734
202549,0.99731445,-0.041381836,-0.09631348,1.5258789,-2.319336,-1.0375977
202559,0.99816895,-0.03869629,-0.09509277,1.4648438,-2.319336,-1.0986328
202569,0.99853516,-0.034423828,-0.09765625,1.159668,-2.380371,-1.159668
202579,0.9959717,-0.029541016,-0.0925293,0.7324219,-2.380371,-0.9765625
202589,0.9962158,-0.03149414,-0.09753418,0.30517578,-2.5024414,-0.79345703
202599,0.99645996,-0.036743164,-0.10021973,-0.24414062,-2.319336,-0.61035156
202609,0.998291,-0.04248047,-0.09631348,-0.24414062,-2.380371,-0.4272461
202619,0.9986572,-0.046020508,-0.10046387,-0.061035156,-2.380371,-0.48828125
202629,0.99694824,-0.044311523,-0.10021973,0.061035156,-2.319336,-0.6713867
202639,0.99523926,-0.03942871,-0.1015625,0.4272461,-2.319336,-0.7324219
202649,0.99938965,-0.03894043,-0.10021973,0.8544922,-2.319336,-0.7324219
202659,1.0001221,-0.04284668,-0.0982666,0.8544922,-2.2583008,-0.61035156
202669,0.9998779,-0.03942871,-0.096191406,0.48828125,-2.380371,-0.61035156
202679,0.9980469,-0.036987305,-0.09887695,0.12207031,-2.2583008,-0.6713867
202699,0.9974365,-0.044799805,-0.09765625,0.36621094,-2.2583008,-0.61035156
202719,0.99902344,-0.040405273,-0.09765625,0.8544922,-2.2583008,-0.8544922
202729,0.99816895,-0.037475586,-0.09863281,0.6713867,-2.319336,-0.79345703
202739,0.9959717,-0.037109375,-0.10095215,0.61035156,-2.319336,-0.7324219
202749,0.9953613,-0.037109375,-0.09692383,0.61035156,-2.380371,-0.61035156
202759,0.99560547,-0.03527832,-0.09753418,0.5493164,-2.319336,-0.5493164
202769,0.9963379,-0.03564453,-0.09680176,0.5493164,-2.2583008,-0.4272461
202779,0.99731445,-0.036132812,-0.095703125,0.4272461,-2.380371,-0.30517578
202789,0.9987793,-0.03881836,-0.09313965,0.30517578,-2.4414062,-0.24414062
202799,1.0006104,-0.041870117,-0.095214844,0.24414062,-2.4414062,-0.24414062
202809,1.0008545,-0.045532227,-0.09899902,0.0,-2.4414062,-0.18310547
202819,0.9987793,-0.0435791,-0.10131836,-0.18310547,-2.319336,-0.36621094
202829,0.9962158,-0.041015625,-0.10205078,0.0,-2.319336,-0.4272461
202839,0.99487305,-0.03942871,-0.10192871,0.30517578,-2.2583008,-0.36621094
202859,1.0,-0.043701172,-0.095336914,0.79345703,-2.1972656,-0.36621094
202879,0.9995117,-0.044067383,-0.09765625,0.30517578,-2.319336,-0.61035156
202889,0.9962158,-0.044067383,-0.09753418,0.18310547,-2.319336,-0.61035156
202899,0.9958496,-0.041870117,-0.09887695,0.061035156,-2.2583008,-0.6713867
202909,0.99658203,-0.03894043,-0.09716797,0.24414062,-2.1972656,-0.6713867
202919,0.9975586,-0.041015625,-0.09765625,0.24414062,-2.319336,-0.6713867
202929,1.0004883,-0.044189453,-0.096191406,0.18310547,-2.319336,-0.6713867
202939,1.0,-0.04272461,-0.09277344,0.061035156,-2.319336,-0.7324219
202949,0.99816895,-0.039916992,-0.09655762,0.061035156,-2.380371,-0.7324219
202959,0.99694824,-0.04272461,-0.09777832,0.36621094,-2.4414062,-0.79345703
202969,0.9980469,-0.04272461,-0.09716797,0.36621094,-2.4414062,-0.79345703
202979,0.9974365,-0.03930664,-0.099975586,0.12207031,-2.4414062,-0.8544922
202989,0.9974365,-0.040161133,-0.099731445,0.4272461,-2.4414062,-0.8544922
202999,0.9986572,-0.0435791,-0.09863281,0.61035156,-2.380371,-0.7324219
203010,0.99853516,-0.04321289,-0.099487305,0.8544922,-2.2583008,-0.79345703
203029,0.9971924,-0.037719727,-0.09423828,0.7324219,-2.319336,-0.8544922
203039,0.99731445,-0.038330078,-0.09423828,0.7324219,-2.4414062,-0.7324219
203049,0.99938965,-0.041503906,-0.09289551,0.6713867,-2.4414062,-0.6713867
203059,1.0003662,-0.041137695,-0.096191406,0.36621094,-2.4414062,-0.7324219
203069,0.9984131,-0.03918457,-0.09680176,0.36621094,-2.5024414,-0.7324219
203079,0.99658203,-0.03845215,-0.09887695,0.36621094,-2.5024414,-0.6713867
203089,0.9967041,-0.038085938,-0.09802246,0.24414062,-2.5024414,-0.6713867
203099,0.9963379,-0.040649414,-0.10083008,0.30517578,-2.380371,-0.61035156
203109,0.9979248,-0.0423584,-0.10021973,0.5493164,-2.380371,-0.5493164
203119,0.99853516,-0.045043945,-0.09814453,0.6713867,-2.380371,-0.61035156
203129,0.9980469,-0.044311523,-0.09643555,0.61035156,-2.380371,-0.61035156
203139,0.99694824,-0.04296875,-0.09777832,0.6713867,-2.319336,-0.61035156
203149,0.9971924,-0.040039062,-0.09753418,0.79345703,-2.380371,-0.6713867
203159,0.9975586,-0.03894043,-0.09484863,0.8544922,-2.380371,-0.6713867
203169,0.9987793,-0.03869629,-0.095947266,0.48828125,-2.380371,-0.61035156
203189,0.99694824,-0.040649414,-0.09631348,-0.12207031,-2.5024414,-0.48828125
203209,0.9968262,-0.04321289,-0.09814453,0.18310547,-2.380371,-0.6713867
203219,0.99853516,-0.04284668,-0.09741211,0.24414062,-2.4414062,-0.6713867
203229,0.9980469,-0.040893555,-0.09741211,0.24414062,-2.380371,-0.7324219
203239,0.9975586,-0.041381836,-0.09716797,0.30517578,-2.380371,-0.7324219
203249,0.99853516,-0.044189453,-0.09692383,0.5493164,-2.380371,-0.7324219
203259,0.998291,-0.042236328,-0.09716797,0.6713867,-2.4414062,-0.6713867
203269,0.99731445,-0.03869629,-0.095458984,0.7324219,-2.4414062,-0.6713867
203279,0.9974365,-0.038085938,-0.09692383,0.7324219,-2.4414062,-0.61035156
203289,0.9980469,-0.041015625,-0.095825195,0.7324219,-2.380371,-0.61035156
203299,0.9996338,-0.041870117,-0.09301758,0.4272461,-2.4414062,-0.61035156
203310,0.99816895,-0.043823242,-0.09631348,0.30517578,-2.5024414,-0.6713867
203319,0.99780273,-0.045288086,-0.095214844,0.5493164,-2.4414062,-0.7324219
203329,0.9971924,-0.044189453,-0.09289551,0.48828125,-2.5024414,-0.79345703
203349,0.9962158,-0.041625977,-0.09899902,0.36621094,-2.5024414,-0.79345703
203369,0.9974365,-0.03942871,-0.0982666,0.61035156,-2.4414062,-0.79345703
203379,0.9967041,-0.041625977,-0.095581055,0.79345703,-2.5634766,-0.7324219
203389,0.9992676,-0.042236328,-0.09655762,0.6713867,-2.4414062,-0.6713867
203399,0.99975586,-0.041625977,-0.09375,0.5493164,-2.5024414,-0.6713867
203409,0.9980469,-0.043945312,-0.09729004,0.79345703,-2.6245117,-0.61035156
203419,0.99768066,-0.03857422,-0.09399414,0.36621094,-2.6855469,-0.6713867
203429,0.99694824,-0.037597656,-0.09680176,0.12207031,-2.6245117,-0.7324219
203439,0.9975586,-0.04321289,-0.099243164,0.30517578,-2.6245117,-0.61035156
203449,0.99853516,-0.047607422,-0.09838867,0.061035156,-2.5024414,-0.61035156
203459,0.99938965,-0.04650879,-0.09753418,0.12207031,-2.6245117,-0.79345703
203469,0.9971924,-0.0423584,-0.10168457,0.30517578,-2.6855469,-0.8544922
203479,0.99645996,-0.04248047,-0.099609375,0.48828125,-2.5634766,-0.8544922
203489,0.9970703,-0.045654297,-0.09838867,0.61035156,-2.5024414,-0.8544922
203499,0.9963379,-0.045776367,-0.099121094,0.6713867,-2.5024414,-1.0375977
203519,0.9987793,-0.037109375,-0.09472656,0.9765625,-2.380371,-1.0986328
203539,0.9986572,-0.038330078,-0.09753418,0.8544922,-2.5024414,-0.8544922
203549,0.9963379,-0.035888672,-0.09643555,0.4272461,-2.5024414,-0.79345703
203559,0.9953613,-0.03894043,-0.09777832,0.24414062,-2.5634766,-0.7324219
203569,0.9967041,-0.04296875,-0.09655762,0.30517578,-2.5024414,-0.6713867
203579,0.99780273,-0.04284668,-0.09655762,0.061035156,-2.5634766,-0.61035156
203589,0.99768066,-0.045043945,-0.09741211,0.24414062,-2.6245117,-0.61035156
203599,0.9987793,-0.046142578,-0.09753418,0.4272461,-2.6855469,-0.7324219
203609,0.99816895,-0.045532227,-0.100097656,0.36621094,-2.6245117,-0.8544922
203619,0.9980469,-0.04272461,-0.10180664,0.4272461,-2.6245117,-0.8544922
203629,0.99572754,-0.03967285,-0.10241699,0.5493164,-2.6245117,-0.79345703
203639,0.9959717,-0.040039062,-0.10131836,0.91552734,-2.5024414,-0.7324219
203649,0.9968262,-0.03881836,-0.10046387,1.0375977,-2.4414062,-0.7324219
203659,0.9967041,-0.038085938,-0.095336914,1.0986328,-2.5024414,-0.5493164
203679,0.99890137,-0.03955078,-0.09643555,0.30517578,-2.6855469,-0.4272461
203699,0.9958496,-0.047851562,-0.09814453,0.0,-2.6855469,-0.48828125
203709,0.9959717,-0.04699707,-0.09777832,0.0,-2.6855469,-0.5493164
203719,0.99731445,-0.043823242,-0.099121094,0.12207031,-2.6855469,-0.61035156
203729,0.9995117,-0.044677734,-0.10119629,0.30517578,-2.6855469,-0.6713867
203739,1.0002441,-0.045898438,-0.104003906,0.36621094,-2.5024414,-0.7324219
203749,0.99890137,-0.04309082,-0.1015625,0.36621094,-2.6245117,-0.8544922
203759,0.99609375,-0.040893555,-0.10180664,0.48828125,-2.6245117,-0.9765625
203769,0.9975586,-0.045776367,-0.099975586,0.79345703,-2.4414062,-0.91552734
203779,0.9968262,-0.04663086,-0.09875488,0.79345703,-2.5024414,-0.9765625
203789,0.9963379,-0.043823242,-0.09631348,0.79345703,-2.5634766,-1.0375977
203799,0.9967041,-0.037841797,-0.0970459,0.8544922,-2.5024414,-1.0375977
203809,0.99780273,-0.03552246,-0.09851074,0.8544922,-2.5634766,-0.9765625
203819,0.9998779,-0.0390625,-0.09741211,0.8544922,-2.5634766,-0.8544922
203829,0.99890137,-0.040283203,-0.095703125,0.61035156,-2.5634766,-0.79345703
203849,0.9959717,-0.034057617,-0.09753418,0.61035156,-2.5634766,-0.4272461
203869,0.9971924,-0.04248047,-0.09655762,0.30517578,-2.6855469,-0.12207031
203879,0.99853516,-0.04711914,-0.099853516,0.18310547,-2.6245117,-0.12207031
203889,0.9979248,-0.048339844,-0.10058594,0.30517578,-2.6855469,-0.24414062
203899,0.9974365,-0.044067383,-0.10095215,0.24414062,-2.6855469,-0.4272461
203909,0.998291,-0.044677734,-0.10046387,0.5493164,-2.6245117,-0.4272461
203919,0.99816895,-0.045898438,-0.09814453,0.5493164,-2.4414062,-0.5493164
203929,0.99853516,-0.045654297,-0.09814453,0.4272461,-2.4414062,-0.7324219
203939,0.998291,-0.045166016,-0.09814453,0.4272461,-2.5024414,-0.7324219
203949,0.9970703,-0.046020508,-0.09851074,0.48828125,-2.4414062,-0.7324219
203959,0.99768066,-0.045654297,-0.09790039,0.48828125,-2.5024414,-0.8544922
203969,0.99645996,-0.04321289,-0.10095215,0.5493164,-2.5634766,-0.91552734
203979,0.9974365,-0.04333496,-0.099609375,0.61035156,-2.6245117,-1.0375977
203989,0.99694824,-0.044189453,-0.09851074,0.48828125,-2.6245117,-0.9765625
204009,0.9974365,-0.037475586,-0.09753418,0.7324219,-2.5634766,-0.9765625
204029,0.9992676,-0.037475586,-0.099487305,0.48828125,-2.5024414,-0.61035156
204039,0.99938965,-0.038208008,-0.09802246,0.24414062,-2.5634766,-0.48828125
204049,0.9980469,-0.03942871,-0.10253906,0.12207031,-2.6245117,-0.4272461
204059,0.9975586,-0.044921875,-0.09863281,0.4272461,-2.5634766,-0.4272461
204069,0.99645996,-0.045043945,-0.09851074,0.30517578,-2.5024414,-0.4272461
204079,0.99609375,-0.04248047,-0.09851074,0.4272461,-2.4414062,-0.4272461
204089,0.9971924,-0.04260254,-0.099365234,0.5493164,-2.5024414,-0.4272461
204099,0.99780273,-0.04296875,-0.10046387,0.48828125,-2.5024414,-0.4272461
204109,0.99816895,-0.045898438,-0.1003418,0.5493164,-2.5024414,-0.36621094
204119,0.9980469,-0.044799805,-0.09667969,0.61035156,-2.5024414,-0.48828125
204129,0.99768066,-0.040771484,-0.09643555,0.4272461,-2.5024414,-0.5493164
204139,0.99975586,-0.040405273,-0.0982666,0.36621094,-2.5634766,-0.48828125
204149,1.0,-0.040283203,-0.10437012,0.12207031,-2.6855469,-0.4272461
204159,0.99645996,-0.045410156,-0.10217285,0.30517578,-2.5634766,-0.5493164
204179,0.99768066,-0.045410156,-0.099731445,0.48828125,-2.5634766,-0.79345703
204189,0.9970703,-0.040283203,-0.103881836,0.6713867,-2.746582,-0.7324219
204199,0.99487305,-0.03857422,-0.09863281,0.6713867,-2.6855469,-0.79345703
204209,0.9971924,-0.045288086,-0.09790039,0.6713867,-2.5024414,-0.6713867
204219,0.998291,-0.04736328,-0.103393555,0.4272461,-2.5634766,-0.7324219
204229,0.9953613,-0.043701172,-0.087768555,0.8544922,-2.6245117,-0.7324219
204239,0.9980469,-0.04748535,-0.10656738,1.159668,-2.6855469,-0.8544922
204249,0.9986572,-0.040893555,-0.099121094,0.30517578,-2.4414062,-1.0375977
204259,0.9992676,-0.03857422,-0.103515625,0.8544922,-2.5634766,-1.0375977
204310,0.9967041,-0.045410156,-0.09790039,0.4272461,-2.5024414,-0.61035156
204329,0.99780273,-0.039916992,-0.09887695,0.5493164,-2.6855469,-0.61035156
204349,1.001709,-0.041625977,-0.103515625,0.36621094,-2.4414062,-0.4272461
204359,0.9974365,-0.041503906,-0.104003906,0.30517578,-2.4414062,-0.4272461
204369,0.9951172,-0.044921875,-0.10058594,0.5493164,-2.4414062,-0.36621094
204379,0.9942627,-0.04711914,-0.10070801,0.7324219,-2.4414062,-0.36621094
204389,0.99645996,-0.04748535,-0.09814453,0.91552734,-2.380371,-0.48828125
204399,0.9975586,-0.043945312,-0.09716797,0.9765625,-2.380371,-0.5493164
204409,0.9998779,-0.03552246,-0.09655762,0.79345703,-2.5024414,-0.61035156
204419,0.99975586,-0.036376953,-0.099487305,0.5493164,-2.5634766,-0.61035156
204429,1.0,-0.03918457,-0.10107422,0.12207031,-2.5634766,-0.36621094
204439,0.9974365,-0.041870117,-0.10412598,-0.36621094,-2.4414062,-0.24414062
204449,0.9954834,-0.04724121,-0.103027344,-0.48828125,-2.4414062,-0.30517578
204459,0.9963379,-0.053955078,-0.103027344,-0.30517578,-2.4414062,-0.30517578
204469,0.9975586,-0.05456543,-0.10217285,0.061035156,-2.319336,-0.5493164
204479,0.9980469,-0.049438477,-0.10021973,0.5493164,-2.1972656,-0.8544922
204499,0.9980469,-0.04309082,-0.1015625,0.91552734,-2.319336,-0.8544922
204519,0.9971924,-0.034179688,-0.09716797,0.6713867,-2.4414062,-0.5493164
204529,0.9971924,-0.034179688,-0.099609375,0.12207031,-2.380371,-0.36621094
204539,0.9987793,-0.041259766,-0.09765625,-0.061035156,-2.380371,-0.18310547
204549,0.99816895,-0.048706055,-0.09741211,-0.18310547,-2.380371,-0.12207031
204559,0.9980469,-0.051513672,-0.10046387,-0.24414062,-2.380371,-0.18310547
204569,0.99731445,-0.05078125,-0.1015625,0.061035156,-2.5024414,-0.24414062
204579,0.9963379,-0.047851562,-0.10119629,0.30517578,-2.4414062,-0.48828125
204589,0.99609375,-0.04736328,-0.103881836,0.61035156,-2.4414062,-0.5493164
204599,0.9958496,-0.04638672,-0.103149414,0.7324219,-2.319336,-0.5493164
204609,0.99694824,-0.044921875,-0.09851074,1.0375977,-2.319336,-0.61035156
204619,0.99768066,-0.04284668,-0.099243164,1.159668,-2.319336,-0.7324219
204629,0.9995117,-0.040161133,-0.09729004,1.0375977,-2.319336,-0.6713867
204639,1.0,-0.036743164,-0.09790039,0.61035156,-2.4414062,-0.5493164
204649,0.99780273,-0.03930664,-0.099487305,0.4272461,-2.4414062,-0.30517578
204669,0.99658203,-0.045776367,-0.09802246,-0.12207031,-2.380371,-0.30517578
204689,0.9998779,-0.05041504,-0.09802246,0.24414062,-2.4414062,-0.30517578
204699,0.9987793,-0.048461914,-0.099121094,0.36621094,-2.4414062,-0.4272461
204709,0.9967041,-0.045532227,-0.099853516,0.36621094,-2.5024414,-0.61035156
204719,0.9968262,-0.048461914,-0.10229492,0.7324219,-2.380371,-0.61035156
204729,0.99731445,-0.048706055,-0.10021973,0.6713867,-2.380371,-0.6713867
204739,0.998291,-0.047851562,-0.10253906,0.6713867,-2.4414062,-0.7324219
204749,0.9975586,-0.04638672,-0.10241699,0.6713867,-2.4414062,-0.79345703
204759,0.99645996,-0.04309082,-0.10119629,0.7324219,-2.380371,-0.91552734
204769,0.9975586,-0.044555664,-0.09802246,0.7324219,-2.319336,-0.8544922
204779,0.9974365,-0.04675293,-0.09765625,0.79345703,-2.319336,-0.79345703
204789,0.9992676,-0.045654297,-0.095336914,0.61035156,-2.319336,-0.8544922
204799,1.0001221,-0.0435791,-0.100097656,0.36621094,-2.5634766,-0.8544922
204809,0.9968262,-0.041748047,-0.10083008,0.36621094,-2.4414062,-0.8544922
204829,0.99658203,-0.046875,-0.10046387,0.36621094,-2.4414062,-0.6713867
204849,0.99694824,-0.044921875,-0.09899902,0.6713867,-2.2583008,-0.8544922
204859,0.99780273,-0.044799805,-0.10095215,0.79345703,-2.380371,-0.79345703
204869,0.99816895,-0.044555664,-0.099487305,0.7324219,-2.380371,-0.79345703
204879,0.9984131,-0.04248047,-0.10095215,0.6713867,-2.4414062,-0.7324219
204889,0.99853516,-0.04248047,-0.103271484,0.5493164,-2.4414062,-0.61035156
204899,0.9967041,-0.04626465,-0.10131836,0.48828125,-2.380371,-0.61035156
204909,0.9975586,-0.045898438,-0.099731445,0.36621094,-2.319336,-0.61035156
204919,0.99609375,-0.04736328,-0.10119629,0.4272461,-2.319336,-0.61035156
204929,0.99645996,-0.048095703,-0.099975586,0.7324219,-2.319336,-0.6713867
204939,0.9980469,-0.048706055,-0.09863281,0.6713867,-2.319336,-0.79345703
204949,0.99816895,-0.048217773,-0.09741211,0.6713867,-2.2583008,-0.8544922
204959,0.99816895,-0.045654297,-0.09814453,0.5493164,-2.380371,-0.9765625
204969,0.9980469,-0.044189453,-0.099609375,0.61035156,-2.380371,-0.9765625
204979,0.9979248,-0.044677734,-0.099609375,0.36621094,-2.380371,-0.9765625
204999,0.99731445,-0.045288086,-0.10119629,0.18310547,-2.319336,-0.9765625
205019,0.9998779,-0.0501709,-0.10070801,0.18310547,-2.319336,-1.2207031
205029,0.9967041,-0.04736328,-0.10119629,0.48828125,-2.2583008,-1.3427734
205039,0.99780273,-0.045288086,-0.09851074,0.7324219,-2.319336,-1.4038086
205049,0.9970703,-0.043945312,-0.099853516,0.79345703,-2.380371,-1.3427734
205059,0.99975586,-0.041381836,-0.09851074,0.7324219,-2.4414062,-1.2207031
205069,0.99768066,-0.041992188,-0.10058594,0.6713867,-2.380371,-1.159668
205079,0.99572754,-0.03869629,-0.1003418,0.5493164,-2.4414062,-1.0986328
205089,0.99487305,-0.03955078,-0.10107422,0.6713867,-2.4414062,-0.9765625
205099,0.99780273,-0.042236328,-0.099609375,0.7324219,-2.380371,-0.9765625
205109,0.99816895,-0.03881836,-0.09802246,0.61035156,-2.4414062,-0.8544922
205119,0.9979248,-0.03955078,-0.099487305,0.5493164,-2.5634766,-0.7324219
205129,0.99902344,-0.044311523,-0.1015625,0.48828125,-2.6245117,-0.61035156
205139,0.9968262,-0.045654297,-0.10070801,0.061035156,-2.6245117,-0.6713867
205159,0.99658203,-0.045166016,-0.099975586,0.5493164,-2.5634766,-0.79345703
205179,0.9987793,-0.046142578,-0.1003418,0.6713867,-2.5024414,-0.7324219
205189,0.9986572,-0.044799805,-0.10168457,0.61035156,-2.5634766,-0.79345703
205199,0.9979248,-0.04284668,-0.100097656,0.61035156,-2.5024414,-0.8544922
205209,0.9968262,-0.042236328,-0.10021973,0.6713867,-2.380371,-0.79345703
205219,0.99768066,-0.04345703,-0.0982666,0.79345703,-2.4414062,-0.7324219
205229,0.9987793,-0.044067383,-0.10058594,0.6713867,-2.5634766,-0.6713867
205239,0.99902344,-0.044921875,-0.10168457,0.24414062,-2.5634766,-0.7324219
205249,0.99694824,-0.044555664,-0.099975586,0.18310547,-2.4414062,-0.79345703
205259,0.9967041,-0.045288086,-0.10412598,0.061035156,-2.380371,-0.79345703
205269,0.9970703,-0.048828125,-0.10229492,0.36621094,-2.4414062,-0.8544922
205279,0.99560547,-0.045654297,-0.09790039,0.48828125,-2.5024414,-1.0375977
205289,0.9963379,-0.040771484,-0.09790039,0.61035156,-2.5024414,-1.0986328
205299,0.99902344,-0.03479004,-0.099365234,0.48828125,-2.4414062,-0.9765625
205309,0.99816895,-0.037719727,-0.09814453,0.18310547,-2.6245117,-0.5493164
205329,0.9963379,-0.047851562,-0.10180664,0.0,-2.5024414,-0.4272461
205349,0.99694824,-0.04711914,-0.099731445,0.4272461,-2.5024414,-0.6713867
205359,0.9971924,-0.044677734,-0.10119629,0.48828125,-2.5024414,-0.7324219
205369,0.9971924,-0.037475586,-0.09814453,0.5493164,-2.6245117,-0.7324219
205379,0.99780273,-0.03942871,-0.1048584,0.48828125,-2.5634766,-0.61035156
205389,0.9986572,-0.046875,-0.10205078,0.48828125,-2.5024414,-0.48828125
205399,0.9967041,-0.045776367,-0.099243164,0.12207031,-2.5024414,-0.5493164
205409,0.99658203,-0.045532227,-0.10095215,0.18310547,-2.380371,-0.6713867
205419,0.99658203,-0.04724121,-0.10217285,0.48828125,-2.380371,-0.6713867
205429,0.9971924,-0.04638672,-0.10070801,0.61035156,-2.4414062,-0.79345703
205439,0.99731445,-0.044067383,-0.09851074,0.61035156,-2.319336,-0.8544922
205449,0.9986572,-0.041625977,-0.09790039,0.7324219,-2.380371,-0.8544922
205459,0.9991455,-0.04284668,-0.09863281,0.6713867,-2.319336,-0.79345703
205469,0.99816895,-0.044067383,-0.09777832,0.48828125,-2.319336,-0.7324219
205489,0.99609375,-0.045288086,-0.10266113,0.12207031,-2.4414062,-0.79345703
205509,0.99572754,-0.04650879,-0.10168457,0.4272461,-2.5024414,-0.79345703
205519,0.9975586,-0.048706055,-0.09753418,0.5493164,-2.5024414,-0.79345703
205529,0.998291,-0.049804688,-0.09643555,0.4272461,-2.5024414,-1.0375977
205560,0.9970703,-0.038085938,-0.09802246,0.4272461,-2.5024414,-1.159668
205569,0.99731445,-0.03894043,-0.10070801,0.24414062,-2.5634766,-0.9765625
205579,0.99816895,-0.043701172,-0.10461426,0.12207031,-2.5634766,-0.8544922
205589,0.9970703,-0.044189453,-0.10241699,0.18310547,-2.5634766,-0.79345703
205599,0.99609375,-0.04260254,-0.10229492,0.4272461,-2.5024414,-0.8544922
205609,0.9968262,-0.043945312,-0.10229492,0.61035156,-2.380371,-0.79345703
205619,0.99731445,-0.044799805,-0.09753418,0.7324219,-2.4414062,-0.79345703
205629,0.9984131,-0.04272461,-0.09716797,0.8544922,-2.5024414,-0.8544922
205639,0.9992676,-0.041259766,-0.09851074,0.48828125,-2.5024414,-0.7324219
205659,0.99645996,-0.044189453,-0.10253906,0.12207031,-2.5634766,-0.8544922
205669,0.9971924,-0.046020508,-0.10144043,0.36621094,-2.5634766,-0.7324219
205679,0.9984131,-0.045776367,-0.1015625,0.24414062,-2.380371,-0.7324219
205689,0.99780273,-0.049072266,-0.103149414,0.24414062,-2.5024414,-0.8544922
205699,0.9971924,-0.049194336,-0.10424805,0.7324219,-2.6245117,-0.9765625
205709,0.9971924,-0.047729492,-0.099243164,1.0986328,-2.5634766,-1.159668
205719,0.99768066,-0.044555664,-0.09692383,1.0375977,-2.5024414,-1.2817383
205729,0.99768066,-0.03894043,-0.09887695,0.79345703,-2.5634766,-1.2207031
205739,0.99694824,-0.039794922,-0.10058594,0.6713867,-2.5634766,-1.159668
205749,0.99768066,-0.041137695,-0.10217285,0.36621094,-2.5024414,-1.0986328
205759,0.99572754,-0.044799805,-0.10131836,0.30517578,-2.4414062,-1.0986328
205769,0.99645996,-0.044311523,-0.099243164,0.5493164,-2.4414062,-1.0986328
205779,0.99816895,-0.041625977,-0.09741211,0.91552734,-2.4414062,-1.2207031
205789,0.99816895,-0.037719727,-0.095947266,0.8544922,-2.5024414,-1.159668
205799,0.9968262,-0.038208008,-0.0982666,0.7324219,-2.6245117,-0.91552734
205819,0.9992676,-0.03564453,-0.10180664,0.36621094,-2.6245117,-0.6713867
205839,0.9974365,-0.04699707,-0.1027832,0.12207031,-2.5634766,-0.4272461
205849,0.9970703,-0.047607422,-0.10205078,0.18310547,-2.6245117,-0.5493164
205859,0.99768066,-0.044189453,-0.10180664,0.4272461,-2.5634766,-0.6713867
205869,0.9974365,-0.041748047,-0.100097656,0.7324219,-2.5024414,-0.7324219
205879,0.99768066,-0.0435791,-0.1003418,0.7324219,-2.5634766,-0.61035156
205889,1.0012207,-0.044555664,-0.099609375,0.61035156,-2.5634766,-0.6713867
205899,0.9979248,-0.044311523,-0.1015625,0.36621094,-2.6245117,-0.79345703
205909,0.99487305,-0.043701172,-0.10217285,0.36621094,-2.6245117,-0.7324219
205919,0.9949951,-0.043701172,-0.10070801,0.48828125,-2.5024414,-0.79345703
205929,0.9959717,-0.044311523,-0.10119629,0.5493164,-2.5634766,-0.8544922
205939,0.99853516,-0.043823242,-0.099731445,0.5493164,-2.5024414,-0.91552734
205949,0.9974365,-0.044067383,-0.10095215,0.6713867,-2.380371,-0.91552734
205959,0.9980469,-0.044677734,-0.1003418,0.5493164,-2.5024414,-0.91552734
205979,0.99694824,-0.041503906,-0.099731445,0.7324219,-2.4414062,-1.159668
205999,0.9968262,-0.03869629,-0.10107422,0.4272461,-2.380371,-1.0375977
206009,0.99731445,-0.03869629,-0.10180664,0.36621094,-2.4414062,-0.91552734
206019,0.99658203,-0.03869629,-0.10058594,0.36621094,-2.5024414,-0.79345703
206029,0.9959717,-0.037597656,-0.099365234,0.48828125,-2.5024414,-0.6713867
206039,0.99731445,-0.03894043,-0.10058594,0.61035156,-2.5024414,-0.6713867
206049,0.9991455,-0.041992188,-0.09838867,0.7324219,-2.5024414,-0.61035156
206059,0.99768066,-0.044067383,-0.099243164,0.79345703,-2.5634766,-0.61035156
206069,0.9991455,-0.044799805,-0.10021973,0.6713867,-2.5634766,-0.61035156
206079,0.9979248,-0.045288086,-0.10168457,0.61035156,-2.5634766,-0.6713867
206089,0.99572754,-0.046875,-0.10095215,0.6713867,-2.5634766,-0.7324219
206099,0.9971924,-0.041992188,-0.10546875,0.4272461,-2.6245117,-0.79345703
206109,0.99816895,-0.041381836,-0.10205078,0.4272461,-2.5634766,-0.91552734
206119,0.9979248,-0.045410156,-0.10229492,0.4272461,-2.5024414,-0.79345703
206129,0.9979248,-0.047973633,-0.10205078,0.4272461,-2.4414062,-1.0375977
206149,0.9984131,-0.040649414,-0.09851074,0.9765625,-2.5634766,-1.2817383
206169,0.9971924,-0.03527832,-0.099853516,0.4272461,-2.5634766,-1.159668
206179,0.99609375,-0.03479004,-0.10107422,0.36621094,-2.5024414,-0.9765625
206189,0.9971924,-0.034179688,-0.10070801,0.18310547,-2.6245117,-0.7324219
206199,0.9974365,-0.037719727,-0.099121094,0.0,-2.5634766,-0.61035156
206209,0.9986572,-0.045654297,-0.10107422,0.12207031,-2.5634766,-0.48828125
206219,0.99890137,-0.047973633,-0.1015625,0.0,-2.5634766,-0.5493164
206229,0.99694824,-0.04699707,-0.1060791,-0.061035156,-2.5634766,-0.6713867
206239,0.9953613,-0.04663086,-0.10266113,0.24414062,-2.5024414,-0.79345703
206249,0.9962158,-0.044677734,-0.10217285,0.30517578,-2.5024414,-0.8544922
206259,0.9970703,-0.04626465,-0.10217285,0.48828125,-2.5024414,-0.9765625
206269,0.99816895,-0.048095703,-0.10412598,0.61035156,-2.5024414,-1.0986328
206279,0.9970703,-0.043823242,-0.10046387,0.61035156,-2.380371,-1.159668
206289,0.9970703,-0.038085938,-0.1003418,0.8544922,-2.4414062,-1.0986328
206309,0.998291,-0.037719727,-0.09631348,0.48828125,-2.5024414,-0.91552734
206329,0.9971924,-0.044677734,-0.10058594,0.30517578,-2.5634766,-0.79345703
206339,0.9959717,-0.044189453,-0.103881836,-0.061035156,-2.5634766,-0.8544922
206349,0.9963379,-0.041748047,-0.1015625,0.24414062,-2.380371,-0.91552734
206359,0.99645996,-0.0390625,-0.099487305,0.4272461,-2.380371,-0.9765625
206369,0.998291,-0.041503906,-0.10205078,0.7324219,-2.4414062,-0.79345703
206379,0.99816895,-0.036621094,-0.099365234,0.5493164,-2.5024414,-0.79345703
206389,0.9980469,-0.036621094,-0.099121094,0.48828125,-2.5024414,-0.7324219
206399,0.99645996,-0.03894043,-0.10253906,0.48828125,-2.5024414,-0.61035156
206409,0.99768066,-0.041381836,-0.10107422,0.4272461,-2.5024414,-0.48828125
206419,0.99816895,-0.04333496,-0.10266113,0.36621094,-2.5634766,-0.4272461
206429,0.9967041,-0.042236328,-0.1003418,0.4272461,-2.5024414,-0.5493164
206439,0.9970703,-0.040649414,-0.1015625,0.5493164,-2.4414062,-0.5493164
206449,0.9980469,-0.040283203,-0.10058594,0.5493164,-2.5024414,-0.48828125
206459,0.9974365,-0.04333496,-0.099121094,0.7324219,-2.5024414,-0.48828125
206479,0.9953613,-0.03552246,-0.10144043,0.30517578,-2.5634766,-0.5493164
206499,0.9959717,-0.03881836,-0.10070801,0.18310547,-2.5024414,-0.30517578
206509,0.99890137,-0.044189453,-0.10131836,0.0,-2.5634766,-0.30517578
206519,0.9980469,-0.045898438,-0.099243164,0.12207031,-2.6245117,-0.24414062
206529,0.9987793,-0.04345703,-0.09753418,0.24414062,-2.6855469,-0.30517578
206539,0.9992676,-0.044067383,-0.10168457,0.12207031,-2.6245117,-0.36621094
206549,0.9984131,-0.04260254,-0.099975586,0.0,-2.6245117,-0.4272461
206559,0.99658203,-0.0423584,-0.10290527,-0.18310547,-2.746582,-0.4272461
206569,0.99694824,-0.04638672,-0.103515625,0.061035156,-2.6245117,-0.48828125
206579,0.99694824,-0.046875,-0.103027344,0.18310547,-2.6245117,-0.5493164
206589,0.998291,-0.04711914,-0.104003906,0.36621094,-2.6855469,-0.6713867
206599,0.9974365,-0.048461914,-0.10241699,0.79345703,-2.6245117,-0.7324219
206609,0.99768066,-0.0435791,-0.099121094,0.8544922,-2.6245117,-0.79345703
206619,0.99609375,-0.042236328,-0.09851074,0.91552734,-2.6245117,-0.8544922
206639,0.99694824,-0.039794922,-0.099853516,0.6713867,-2.5634766,-0.7324219
206659,0.9968262,-0.041259766,-0.10095215,0.24414062,-2.6855469,-0.7324219
206669,0.99768066,-0.045410156,-0.10058594,0.30517578,-2.6245117,-0.7324219
206679,0.99658203,-0.049316406,-0.099487305,0.36621094,-2.5634766,-0.7324219
206689,0.998291,-0.04711914,-0.1003418,0.36621094,-2.6855469,-0.91552734
206699,0.99731445,-0.044799805,-0.099853516,0.48828125,-2.6855469,-1.0375977
206709,0.99768066,-0.04309082,-0.1015625,0.5493164,-2.746582,-1.0986328
206719,0.99890137,-0.04333496,-0.10070801,0.48828125,-2.6855469,-1.0986328
206729,0.9987793,-0.043823242,-0.09899902,0.4272461,-2.6855469,-1.2207031
206739,0.9980469,-0.043945312,-0.1015625,0.36621094,-2.5634766,-1.2817383
206749,0.9974365,-0.04296875,-0.103759766,0.5493164,-2.6245117,-1.2817383
206759,0.9967041,-0.03967285,-0.10449219,0.5493164,-2.6245117,-1.2817383
206810,0.99731445,-0.036743164,-0.099365234,0.30517578,-2.6855469,-0.48828125
206819,0.99890137,-0.040405273,-0.099487305,0.18310547,-2.6855469,-0.36621094
206829,1.0,-0.041748047,-0.10180664,-0.061035156,-2.8076172,-0.30517578
206839,0.99780273,-0.044799805,-0.103759766,0.061035156,-2.746582,-0.30517578
206849,0.99645996,-0.045410156,-0.103393555,0.12207031,-2.6855469,-0.30517578
206859,0.99609375,-0.04638672,-0.10253906,0.30517578,-2.5634766,-0.4272461
206869,0.9968262,-0.04650879,-0.10266113,0.5493164,-2.5024414,-0.5493164
206879,0.99731445,-0.04675293,-0.10144043,0.79345703,-2.5024414,-0.6713867
206889,0.9986572,-0.04626465,-0.099121094,0.61035156,-2.380371,-0.79345703
206899,0.99853516,-0.047607422,-0.10070801,0.6713867,-2.4414062,-0.91552734
206909,0.99816895,-0.045410156,-0.09765625,0.8544922,-2.5024414,-0.9765625
206919,0.9971924,-0.044189453,-0.10083008,0.8544922,-2.5634766,-1.0375977
206929,0.9984131,-0.04321289,-0.104003906,0.91552734,-2.5634766,-1.0986328
206939,0.9984131,-0.0435791,-0.103393555,0.9765625,-2.5024414,-1.0986328
206949,0.9971924,-0.045288086,-0.103149414,1.0986328,-2.5024414,-1.2817383
206969,0.99780273,-0.041015625,-0.09863281,1.2817383,-2.380371,-1.3427734
206989,0.9970703,-0.03540039,-0.10424805,0.8544922,-2.2583008,-1.3427734
206999,0.99658203,-0.036621094,-0.10522461,0.8544922,-2.1972656,-1.0986328
207009,0.99645996,-0.03881836,-0.10217285,0.6713867,-2.2583008,-0.9765625
207019,0.9986572,-0.041259766,-0.10046387,0.5493164,-2.1362305,-0.9765625
207029,1.0002441,-0.041137695,-0.099243164,0.48828125,-2.1362305,-0.9765625
207039,0.99938965,-0.041870117,-0.10021973,0.48828125,-2.1972656,-1.0375977
207049,0.99816895,-0.0423584,-0.1003418,0.48828125,-2.1362305,-0.9765625
207059,0.99694824,-0.041992188,-0.099609375,0.61035156,-2.2583008,-0.9765625
207069,0.99560547,-0.037841797,-0.099365234,0.5493164,-2.319336,-1.0375977
207079,0.99853516,-0.034057617,-0.10498047,0.4272461,-2.1362305,-0.91552734
207089,0.99731445,-0.037353516,-0.1015625,0.24414062,-2.1972656,-0.79345703
207099,0.99694824,-0.042114258,-0.10107422,0.12207031,-2.1972656,-0.6713867
207109,0.99609375,-0.045166016,-0.099975586,0.12207031,-2.1972656,-0.6713867
207129,0.99902344,-0.040527344,-0.09863281,0.36621094,-2.2583008,-0.8544922
207149,0.9971924,-0.03503418,-0.10095215,0.061035156,-2.2583008,-0.79345703
207159,0.99658203,-0.03466797,-0.103637695,-0.12207031,-2.319336,-0.6713867
207169,0.9974365,-0.036865234,-0.103393555,-0.12207031,-2.2583008,-0.5493164
207179,0.9975586,-0.03942871,-0.10168457,-0.18310547,-2.2583008,-0.4272461
207189,0.998291,-0.040771484,-0.10046387,-0.12207031,-2.1972656,-0.4272461
207199,0.9975586,-0.04309082,-0.10095215,0.061035156,-2.1362305,-0.30517578
207209,0.99816895,-0.0435791,-0.099731445,0.24414062,-2.0751953,-0.30517578
207219,0.9970703,-0.043945312,-0.0982666,0.48828125,-2.0751953,-0.4272461
207229,0.9980469,-0.04333496,-0.09655762,0.61035156,-2.0751953,-0.61035156
207239,1.0001221,-0.041381836,-0.10046387,0.5493164,-2.1362305,-0.6713867
207249,0.9987793,-0.040039062,-0.10192871,0.48828125,-2.1362305,-0.6713867
207259,0.9984131,-0.038330078,-0.103515625,0.30517578,-2.1362305,-0.61035156
207269,0.9968262,-0.03967285,-0.10229492,0.18310547,-2.1362305,-0.5493164
207279,0.9971924,-0.044311523,-0.10241699,0.30517578,-2.0751953,-0.61035156
207299,0.9974365,-0.043945312,-0.09472656,0.7324219,-2.1362305,-0.9765625
207319,0.99731445,-0.041137695,-0.09716797,0.61035156,-2.1972656,-1.0375977
207329,0.9967041,-0.041137695,-0.09729004,0.5493164,-2.2583008,-1.0375977
207339,0.9979248,-0.040161133,-0.10046387,0.48828125,-2.2583008,-0.9765625
207349,0.99731445,-0.03881836,-0.10070801,0.36621094,-2.2583008,-0.91552734
207359,0.9971924,-0.037475586,-0.10144043,0.18310547,-2.2583008,-0.91552734
207369,0.99645996,-0.040649414,-0.10168457,0.24414062,-2.1972656,-0.8544922
207379,0.9970703,-0.043701172,-0.10180664,0.4272461,-2.1362305,-0.8544922
207389,0.9998779,-0.045043945,-0.09814453,0.48828125,-2.1972656,-0.8544922
207399,0.9975586,-0.043823242,-0.09692383,0.4272461,-2.1362305,-1.0375977
207409,0.99938965,-0.044677734,-0.096069336,0.5493164,-2.1972656,-1.0986328
207419,0.9991455,-0.04748535,-0.09460449,0.7324219,-2.1972656,-1.2207031
207429,0.99975586,-0.04736328,-0.09667969,0.6713867,-2.1972656,-1.3427734
207439,0.9998779,-0.044067383,-0.09887695,0.61035156,-2.319336,-1.5258789
207459,0.9959717,-0.036865234,-0.103393555,0.7324219,-2.2583008,-1.4038086
207479,0.9992676,-0.041381836,-0.10070801,0.61035156,-2.1362305,-1.3427734
207489,0.9992676,-0.03942871,-0.103149414,0.7324219,-2.0751953,-1.3427734
207499,0.9963379,-0.036621094,-0.10119629,0.7324219,-2.0141602,-1.2817383
207509,0.9954834,-0.033569336,-0.09875488,0.79345703,-2.0141602,-1.2817383
207519,0.9962158,-0.036499023,-0.09655762,0.8544922,-2.0141602,-1.159668
207529,0.9984131,-0.03942871,-0.09655762,0.79345703,-2.0751953,-0.9765625
207539,1.0002441,-0.037841797,-0.09643555,0.5493164,-2.0751953,-0.9765625
207549,0.9992676,-0.037231445,-0.09667969,0.4272461,-2.1362305,-0.9765625
207559,0.99816895,-0.034423828,-0.0970459,0.36621094,-2.1362305,-0.9765625
207569,0.99731445,-0.032226562,-0.09753418,0.30517578,-2.1362305,-0.8544922
207579,0.99816895,-0.033935547,-0.099121094,0.061035156,-2.1362305,-0.6713867
207589,0.9984131,-0.036621094,-0.09875488,0.12207031,-2.319336,-0.5493164
207599,0.99645996,-0.041137695,-0.09631348,0.061035156,-2.1972656,-0.4272461
207609,0.99731445,-0.046020508,-0.095703125,0.24414062,-2.2583008,-0.5493164
207629,0.9975586,-0.035888672,-0.09680176,0.6713867,-2.319336,-0.7324219
207649,1.0009766,-0.040893555,-0.09863281,0.36621094,-2.2583008,-0.7324219
207659,0.998291,-0.040893555,-0.096069336,0.12207031,-2.380371,-0.7324219
207669,0.99890137,-0.036621094,-0.09814453,0.12207031,-2.319336,-0.79345703
207679,0.99645996,-0.03918457,-0.09716797,0.36621094,-2.2583008,-0.8544922
207689,0.9954834,-0.040771484,-0.095947266,0.4272461,-2.2583008,-0.8544922
207699,0.9968262,-0.040527344,-0.095458984,0.5493164,-2.4414062,-0.9765625
207709,0.99731445,-0.040527344,-0.09509277,0.79345703,-2.4414062,-0.9765625
207719,0.99768066,-0.03857422,-0.095581055,0.79345703,-2.4414062,-1.0375977
207729,0.9991455,-0.03540039,-0.095458984,0.7324219,-2.5024414,-1.0986328
207739,0.9980469,-0.033935547,-0.09899902,0.6713867,-2.5024414,-0.9765625
207749,0.99731445,-0.030761719,-0.09729004,0.79345703,-2.5634766,-0.8544922
207759,0.99645996,-0.030395508,-0.09680176,0.79345703,-2.5024414,-0.7324219
207769,0.99658203,-0.03515625,-0.095825195,0.6713867,-2.5024414,-0.48828125
207789,0.9970703,-0.037231445,-0.095703125,0.24414062,-2.5024414,-0.30517578
207809,0.9963379,-0.043701172,-0.0970459,0.30517578,-2.5024414,-0.30517578
207819,0.99853516,-0.04333496,-0.09875488,0.36621094,-2.5024414,-0.36621094
207829,0.9987793,-0.040405273,-0.09838867,0.48828125,-2.5024414,-0.5493164
207839,0.99560547,-0.038085938,-0.099731445,0.36621094,-2.4414062,-0.61035156
207849,0.9958496,-0.036376953,-0.099365234,0.36621094,-2.380371,-0.6713867
207859,0.9962158,-0.039916992,-0.099853516,0.5493164,-2.319336,-0.61035156
207869,0.99816895,-0.042114258,-0.096069336,0.5493164,-2.2583008,-0.61035156
207879,0.9986572,-0.0423584,-0.095214844,0.61035156,-2.319336,-0.7324219
207889,0.9974365,-0.03894043,-0.09411621,0.91552734,-2.380371,-0.7324219
207899,0.99853516,-0.040771484,-0.09313965,1.0986328,-2.4414062,-0.7324219
207909,0.99768066,-0.04345703,-0.088134766,1.4038086,-2.5024414,-0.8544922
207919,0.9967041,-0.03552246,-0.091796875,0.91552734,-2.6245117,-0.9765625
207929,0.99645996,-0.028442383,-0.09887695,0.48828125,-2.6245117,-0.9765625
207939,0.99780273,-0.032104492,-0.10412598,0.30517578,-2.5024414,-0.5493164
207959,0.9967041,-0.037719727,-0.09460449,0.36621094,-2.5634766,-0.4272461
207979,0.9987793,-0.045776367,-0.09765625,-0.12207031,-2.4414062,-0.5493164
207989,0.9970703,-0.04309082,-0.099609375,0.0,-2.380371,-0.79345703
207999,0.9949951,-0.037475586,-0.10119629,0.24414062,-2.380371,-0.8544922
208009,0.9958496,-0.037597656,-0.09716797,0.4272461,-2.2583008,-0.79345703
208019,0.9980469,-0.042236328,-0.09484863,0.48828125,-2.1972656,-0.7324219
208029,0.9980469,-0.044555664,-0.09680176,0.61035156,-2.1362305,-0.8544922
208039,0.99975586,-0.040649414,-0.10217285,0.61035156,-2.1362305,-0.9765625
208049,0.99780273,-0.030639648,-0.099487305,0.79345703,-2.0751953,-0.91552734
208059,0.9967041,-0.028076172,-0.104003906,0.6713867,-2.1362305,-0.91552734
208110,0.9970703,-0.039794922,-0.09277344,0.5493164,-1.953125,-0.9765625
208129,0.9975586,-0.03869629,-0.09667969,0.61035156,-1.8310547,-1.159668
208139,0.9959717,-0.03552246,-0.09729004,0.4272461,-1.8310547,-1.0375977
208149,0.9967041,-0.03527832,-0.09875488,0.48828125,-1.8920898,-1.0375977
208159,0.99572754,-0.033081055,-0.095947266,0.6713867,-1.8310547,-0.9765625
208169,0.9974365,-0.03100586,-0.09350586,0.6713867,-1.8920898,-0.8544922
208179,0.99816895,-0.033813477,-0.09326172,0.4272461,-1.8310547,-0.6713867
208189,0.9995117,-0.037719727,-0.09362793,0.30517578,-1.8310547,-0.5493164
208199,0.9970703,-0.042114258,-0.091674805,0.30517578,-1.8310547,-0.61035156
208209,0.99902344,-0.04296875,-0.091308594,0.30517578,-1.8920898,-0.7324219
208219,0.99768066,-0.03894043,-0.091308594,0.24414062,-1.953125,-0.8544922
208229,0.9970703,-0.036621094,-0.09472656,0.18310547,-1.953125,-0.8544922
208239,0.9970703,-0.037231445,-0.09326172,0.18310547,-1.953125,-0.79345703
208249,0.9953613,-0.03930664,-0.09350586,0.12207031,-2.0141602,-0.8544922
208259,0.99645996,-0.041870117,-0.09350586,0.18310547,-2.0751953,-0.8544922
208279,0.9971924,-0.04272461,-0.088256836,0.91552734,-2.1972656,-1.0986328
208299,0.9968262,-0.03100586,-0.09350586,0.9765625,-2.1362305,-1.0375977
208309,0.9967041,-0.032226562,-0.09460449,0.6713867,-2.1972656,-0.8544922
208319,0.99523926,-0.03112793,-0.09350586,0.4272461,-2.2583008,-0.61035156
208329,0.9962158,-0.033813477,-0.09350586,0.4272461,-2.319336,-0.48828125
208339,0.99816895,-0.040283203,-0.09423828,0.4272461,-2.1972656,-0.30517578
208349,0.99780273,-0.041381836,-0.091796875,0.4272461,-2.2583008,-0.36621094
208359,0.99658203,-0.03845215,-0.092285156,0.61035156,-2.2583008,-0.4272461
208369,0.9996338,-0.037597656,-0.09375,0.8544922,-2.380371,-0.48828125
208379,1.0,-0.038208008,-0.09313965,1.159668,-2.319336,-0.4272461
208389,0.9974365,-0.03491211,-0.09313965,0.8544922,-2.319336,-0.48828125
208399,0.99523926,-0.033081055,-0.091430664,0.4272461,-2.319336,-0.5493164
208409,0.99560547,-0.03918457,-0.091796875,0.30517578,-2.2583008,-0.4272461
208419,0.99645996,-0.048706055,-0.09338379,0.24414062,-2.319336,-0.36621094
208429,0.9975586,-0.049804688,-0.09094238,0.4272461,-2.380371,-0.79345703
208449,0.99609375,-0.033813477,-0.09472656,0.48828125,-2.319336,-0.79345703
208469,0.99768066,-0.032226562,-0.09448242,0.24414062,-2.319336,-0.6713867
208479,0.9987793,-0.036865234,-0.092041016,0.30517578,-2.319336,-0.48828125
208489,0.9980469,-0.040161133,-0.092163086,0.18310547,-2.2583008,-0.36621094
208499,0.99645996,-0.041748047,-0.08886719,0.12207031,-2.380371,-0.4272461
208509,0.9963379,-0.040893555,-0.091552734,0.36621094,-2.4414062,-0.48828125
208519,0.99853516,-0.03894043,-0.091552734,0.61035156,-2.5024414,-0.4272461
208529,0.99902344,-0.038085938,-0.09326172,0.8544922,-2.4414062,-0.4272461
208539,0.99938965,-0.03186035,-0.092163086,0.79345703,-2.5634766,-0.36621094
208549,0.9967041,-0.03564453,-0.09289551,1.0375977,-2.5634766,-0.30517578
208559,0.9967041,-0.036865234,-0.09460449,0.61035156,-2.6245117,-0.18310547
208569,0.998291,-0.036621094,-0.095703125,0.18310547,-2.5634766,-0.18310547
208579,0.99658203,-0.037719727,-0.095214844,0.30517578,-2.5024414,-0.12207031
208589,0.99487305,-0.036621094,-0.09338379,0.30517578,-2.5024414,-0.061035156
208609,0.9980469,-0.045898438,-0.08886719,0.24414062,-2.319336,-0.30517578
208629,0.99560547,-0.038330078,-0.095581055,0.48828125,-2.4414062,-0.48828125
208639,0.9959717,-0.036865234,-0.0925293,0.36621094,-2.4414062,-0.5493164
208649,0.99780273,-0.040283203,-0.09460449,0.36621094,-2.4414062,-0.5493164
208659,0.99768066,-0.041870117,-0.091552734,0.5493164,-2.4414062,-0.4272461
208669,0.99890137,-0.040893555,-0.09094238,0.36621094,-2.4414062,-0.48828125
208679,0.99645996,-0.040893555,-0.09411621,0.36621094,-2.4414062,-0.61035156
208689,0.9958496,-0.039916992,-0.09265137,0.48828125,-2.4414062,-0.5493164
208699,0.99450684,-0.037353516,-0.09082031,0.5493164,-2.4414062,-0.5493164
208709,0.99694824,-0.040649414,-0.09106445,0.7324219,-2.380371,-0.48828125
208719,0.99902344,-0.04248047,-0.091674805,0.6713867,-2.319336,-0.48828125
208729,0.99975586,-0.04272461,-0.092163086,0.61035156,-2.319336,-0.48828125
208739,0.9975586,-0.03955078,-0.09106445,0.5493164,-2.380371,-0.61035156
208749,0.9963379,-0.03491211,-0.09313965,0.48828125,-2.5024414,-0.61035156
208759,0.99523926,-0.036132812,-0.09472656,0.61035156,-2.5634766,-0.36621094
208779,0.99853516,-0.048095703,-0.091552734,0.24414062,-2.5024414,-0.48828125
208799,0.9968262,-0.045776367,-0.091918945,0.48828125,-2.5634766,-0.79345703
208809,0.9962158,-0.040893555,-0.09631348,0.5493164,-2.4414062,-0.9765625
208819,0.9953613,-0.036987305,-0.09289551,0.61035156,-2.5024414,-1.0986328
208829,0.99645996,-0.037353516,-0.09387207,0.61035156,-2.4414062,-1.0375977
208839,0.9986572,-0.03942871,-0.09326172,0.6713867,-2.380371,-1.0375977
208849,0.9974365,-0.038330078,-0.091308594,0.4272461,-2.4414062,-0.91552734
208859,0.99694824,-0.036132812,-0.09265137,0.36621094,-2.4414062,-0.91552734
208869,0.99560547,-0.036132812,-0.09387207,0.48828125,-2.4414062,-0.8544922
208879,0.99572754,-0.036865234,-0.09277344,0.4272461,-2.5024414,-0.7324219
208889,0.99853516,-0.040893555,-0.091674805,0.5493164,-2.5634766,-0.5493164
208899,0.9987793,-0.044311523,-0.08972168,0.6713867,-2.6245117,-0.4272461
208909,0.99938965,-0.041625977,-0.09094238,0.6713867,-2.6855469,-0.5493164
208919,0.99938965,-0.040039062,-0.095703125,0.61035156,-2.746582,-0.79345703
208939,0.9968262,-0.04650879,-0.095947266,0.24414062,-2.6245117,-0.9765625
208959,0.9975586,-0.044677734,-0.09289551,0.30517578,-2.6245117,-1.2207031
208969,1.0014648,-0.045898438,-0.095336914,0.48828125,-2.5634766,-1.3427734
208979,0.99768066,-0.044799805,-0.091796875,0.7324219,-2.6245117,-1.5258789
208989,0.99487305,-0.03918457,-0.09106445,0.7324219,-2.6245117,-1.5258789
208999,0.9968262,-0.034057617,-0.09472656,0.6713867,-2.746582,-1.5869141
209009,0.9974365,-0.036132812,-0.09899902,0.79345703,-2.6245117,-1.4648438
209019,0.99658203,-0.03503418,-0.09753418,0.6713867,-2.6245117,-1.3427734
209029,0.99609375,-0.029541016,-0.09375,0.6713867,-2.5634766,-1.2207031
209039,0.9975586,-0.025268555,-0.0925293,0.7324219,-2.6855469,-0.9765625
209049,0.99975586,-0.028076172,-0.09240723,0.61035156,-2.746582,-0.5493164
209059,1.0004883,-0.036743164,-0.091674805,0.30517578,-2.746582,-0.36621094
209069,0.99658203,-0.036254883,-0.091674805,-0.30517578,-2.8076172,-0.30517578
209079,0.9967041,-0.036743164,-0.09484863,-0.24414062,-2.8686523,-0.18310547
209089,0.99645996,-0.04284668,-0.095336914,0.30517578,-2.746582,-0.24414062
209109,0.9968262,-0.037963867,-0.095214844,0.9765625,-2.746582,-0.24414062
209129,0.9998779,-0.036499023,-0.09692383,0.8544922,-2.746582,-0.061035156
209139,0.9974365,-0.034179688,-0.09716797,0.48828125,-2.6855469,-0.061035156
209149,0.9968262,-0.037109375,-0.09777832,0.30517578,-2.6245117,0.0
209159,0.9974365,-0.048461914,-0.09509277,0.36621094,-2.6245117,0.12207031
209169,0.9958496,-0.053344727,-0.088256836,0.30517578,-2.6855469,0.0
209179,0.9959717,-0.048706055,-0.08911133,0.36621094,-2.6245117,-0.36621094
209189,0.99694824,-0.04345703,-0.09326172,0.48828125,-2.6855469,-0.6713867
209199,0.9992676,-0.04284668,-0.095214844,0.48828125,-2.6245117,-0.7324219
209209,0.9984131,-0.04272461,-0.095336914,0.18310547,-2.6855469,-0.8544922
209219,0.9971924,-0.043945312,-0.09790039,0.18310547,-2.746582,-0.8544922
209229,0.99768066,-0.041625977,-0.0970459,-0.061035156,-2.6245117,-0.91552734
209239,0.99645996,-0.04333496,-0.09655762,0.0,-2.6245117,-0.9765625
209249,0.9968262,-0.048461914,-0.095336914,0.24414062,-2.5024414,-1.159668
209269,0.99694824,-0.0345459,-0.09387207,1.159668,-2.6245117,-1.159668
209289,0.9968262,-0.029418945,-0.0892334,0.9765625,-2.6245117,-0.91552734
209299,0.99853516,-0.026367188,-0.09436035,0.7324219,-2.6855469,-0.6713867
209309,0.9975586,-0.027709961,-0.08972168,0.18310547,-2.6245117,-0.36621094
209319,0.9963379,-0.030761719,-0.08935547,-0.4272461,-2.746582,-0.061035156
209329,0.9971924,-0.03857422,-0.09460449,-0.61035156,-2.746582,0.18310547
209339,0.9987793,-0.04260254,-0.099487305,-0.8544922,-2.6855469,0.24414062
209349,0.9996338,-0.0501709,-0.10217285,-0.5493164,-2.6245117,0.24414062
209359,0.998291,-0.055908203,-0.103271484,-0.48828125,-2.4414062,0.12207031
209369,0.99438477,-0.05419922,-0.099121094,0.061035156,-2.319336,-0.24414062
209379,0.99487305,-0.05041504,-0.10046387,0.9765625,-2.2583008,-0.61035156
209389,0.9959717,-0.040039062,-0.09802246,1.4038086,-2.1972656,-0.79345703
209399,0.9971924,-0.032958984,-0.09643555,1.3427734,-2.2583008,-0.8544922
209460,0.99645996,-0.040527344,-0.09265137,-0.36621094,-2.1972656,-0.5493164
209469,0.99890137,-0.03967285,-0.095458984,-0.5493164,-2.1972656,-0.48828125
209479,1.0003662,-0.03942871,-0.099121094,-0.61035156,-2.1972656,-0.36621094
209489,0.9975586,-0.03881836,-0.09350586,-0.7324219,-2.0751953,-0.24414062
209499,0.9953613,-0.045043945,-0.08984375,-0.61035156,-2.0751953,-0.18310547
209509,0.99316406,-0.047729492,-0.08569336,-0.48828125,-2.2583008,-0.24414062
209519,0.99438477,-0.041015625,-0.09033203,-0.30517578,-2.319336,-0.36621094
209529,0.9987793,-0.034179688,-0.095214844,-0.36621094,-2.2583008,-0.4272461
209539,1.001831,-0.03137207,-0.10131836,-0.5493164,-2.0751953,-0.24414062
209549,1.0015869,-0.030639648,-0.09741211,-1.159668,-1.953125,0.0
209559,0.9980469,-0.03869629,-0.0949707,-1.5869141,-1.8920898,0.30517578
209569,0.99523926,-0.049438477,-0.10168457,-1.5869141,-1.7089844,0.36621094
209579,0.9937744,-0.049560547,-0.1003418,-1.6479492,-1.4038086,0.061035156
209599,0.9974365,-0.042236328,-0.08996582,-0.91552734,-1.4648438,0.18310547
209619,1.0002441,-0.044555664,-0.096069336,-1.0986328,-1.2817383,0.18310547
209629,0.9979248,-0.041503906,-0.095336914,-1.2207031,-1.0986328,0.18310547
209639,0.9971924,-0.03918457,-0.09436035,-1.159668,-1.0375977,0.12207031
209649,0.99450684,-0.035888672,-0.09680176,-1.0986328,-0.8544922,0.36621094
209659,0.9951172,-0.024902344,-0.09460449,-1.6479492,-0.6713867,0.4272461
209669,0.998291,-0.03161621,-0.10498047,-2.0751953,-0.61035156,0.7324219
209679,1.0025635,-0.047729492,-0.1048584,-2.0141602,-0.4272461,1.159668
209689,1.0042725,-0.059326172,-0.103637695,-2.380371,-0.18310547,1.0375977
209699,1.0031738,-0.06726074,-0.10253906,-1.953125,0.0,0.7324219
209709,0.9968262,-0.07104492,-0.09692383,-1.0375977,0.18310547,0.30517578
209719,0.9953613,-0.06994629,-0.088378906,0.12207031,0.24414062,-0.24414062
209729,0.9958496,-0.07336426,-0.083618164,0.9765625,0.36621094,-0.8544922
209739,0.9984131,-0.071777344,-0.088378906,1.8920898,0.36621094,-1.5258789
209759,1.0047607,-0.053344727,-0.09753418,3.0517578,0.91552734,-2.746582
209779,0.99645996,-0.036132812,-0.09277344,3.1738281,1.4648438,-2.319336
209789,0.9979248,-0.019165039,-0.079711914,2.4414062,1.5869141,-2.1362305
209799,1.001709,-0.021606445,-0.1048584,1.8310547,1.5258789,-1.7089844
209809,1.0031738,-0.041625977,-0.09777832,2.5024414,1.8920898,-1.2207031
209819,1.0041504,-0.048583984,-0.096069336,1.4038086,2.1972656,-1.0986328
209829,1.0019531,-0.043945312,-0.09423828,0.79345703,2.4414062,-1.2207031
209839,0.99902344,-0.04711914,-0.08520508,1.7089844,2.6855469,-1.2817383
209849,0.99645996,-0.045166016,-0.087402344,2.380371,2.9907227,-1.2207031
209859,0.9987793,-0.039794922,-0.084228516,2.380371,3.112793,-1.2207031
209869,1.001831,-0.035888672,-0.087768555,2.319336,3.2958984,-1.0986328
209879,0.998291,-0.028320312,-0.08117676,2.2583008,3.540039,-0.9765625
209889,0.9975586,-0.020996094,-0.07897949,1.8920898,3.7231445,-0.5493164
209899,0.9991455,-0.016357422,-0.08190918,1.4038086,3.8452148,0.061035156
209909,1.0026855,-0.02331543,-0.08203125,0.91552734,4.272461,1.2817383
209929,0.9992676,-0.040161133,-0.06274414,0.7324219,4.5166016,2.0141602
209949,1.0007324,-0.034423828,-0.07043457,1.953125,4.760742,2.4414062
209959,1.0026855,-0.028076172,-0.08276367,1.5869141,4.5776367,2.6855469
209969,1.0026855,-0.036254883,-0.0826416,2.0141602,4.9438477,3.112793
209979,1.0047607,-0.043945312,-0.0769043,2.380371,5.432129,3.4179688
209989,1.0036621,-0.045166016,-0.071777344,1.8920898,5.7373047,3.7231445
209999,1.0029297,-0.043823242,-0.07800293,1.8920898,6.0424805,3.8452148
210009,1.0036621,-0.040771484,-0.078125,1.953125,6.4697266,4.0283203
210019,1.0070801,-0.03869629,-0.06921387,2.2583008,6.8359375,4.211426
210029,1.0124512,-0.0390625,-0.0657959,2.5024414,7.2021484,4.5776367
210039,1.0141602,-0.041015625,-0.05847168,2.319336,7.446289,5.126953
210049,1.0101318,-0.040649414,-0.0546875,2.0141602,7.751465,5.6152344
210059,0.9992676,-0.037231445,-0.052246094,1.5258789,7.9345703,6.225586
210069,0.99438477,-0.030029297,-0.05456543,1.0375977,8.239746,7.446289
210089,1.024292,0.02368164,-0.08850098,-4.5166016,10.803223,9.155273
210109,1.0302734,0.09741211,-0.13305664,-14.282227,13.671875,14.099121
210119,1.0089111,0.08276367,-0.040283203,-20.507812,15.686035,17.63916
210129,1.0026855,0.06335449,-0.06652832,-20.568848,15.197754,21.850586
210139,1.0211182,0.03161621,-0.07800293,-19.470215,14.465332,25.756836
210149,1.0395508,0.021118164,-0.0736084,-20.690918,13.85498,28.747559
210159,1.0479736,0.017822266,-0.057373047,-20.019531,12.878418,31.311035
210169,1.0423584,0.020507812,-0.046142578,-16.540527,11.474609,34.484863
210179,1.0560303,0.0028076172,-0.053222656,-12.878418,9.460449,38.208008
210189,1.0777588,-0.012573242,-0.052246094,-10.131836,7.9345703,41.931152
210199,1.1136475,-0.029052734,-0.048217773,-6.4086914,6.652832,45.715332
210209,1.1556396,-0.06225586,-0.033691406,-2.319336,7.1411133,49.987793
210219,1.1633301,-0.0703125,0.0012207031,2.5634766,9.70459,54.260254
210229,1.1868896,-0.072143555,-0.004638672,5.6152344,11.84082,58.59375
210239,1.2132568,-0.072143555,-0.047729492,7.3242188,13.061523,66.52832
210259,1.2976074,-0.25756836,-0.63256836,6.713867,-4.9438477,78.73535
210279,1.1994629,-0.045043945,-0.13427734,38.879395,-3.8452148,70.06836
210289,1.1107178,-0.18945312,-0.26281738,29.296875,-10.681152,75.98877
210299,1.1687012,-0.32543945,-0.23156738,38.69629,-13.671875,77.39258
210309,1.2075195,-0.15893555,-0.21252441,47.973633,-14.465332,68.96973
210319,1.0869141,0.17932129,-0.12097168,34.606934,-14.892578,56.45752
210329,0.9951172,0.46228027,-0.19238281,32.348633,-18.615723,47.058105
210339,0.92858887,0.6401367,-0.16711426,21.30127,-20.080566,36.132812
210349,0.8376465,0.6722412,-0.17822266,2.319336,-21.42334,32.287598
210359,0.7738037,0.60595703,-0.14904785,-16.784668,-22.705078,28.9917
210369,0.81274414,0.5480957,-0.11816406,-31.921387,-25.634766,18.798828
210379,0.7972412,0.6114502,-0.052001953,-35.583496,-27.160645,3.8452148
210389,0.7503662,0.66833496,-0.036254883,-37.78076,-28.503418,-9.58252
210399,0.7495117,0.65319824,-0.03503418,-43.70117,-29.296875,-35.03418
210419,0.90197754,0.3803711,0.057128906,-47.851562,-24.169922,-65.61279
210439,1.0128174,0.30407715,0.09375,-44.189453,-19.16504,-96.069336
210449,1.0441895,0.2520752,0.09448242,-40.893555,-16.845703,-107.97119
210459,1.0744629,0.18701172,0.08544922,-37.53662,-14.404297,-117.492676
210469,1.1141357,0.13195801,0.088134766,-34.362793,-11.657715,-125.79346
210479,1.1639404,0.10449219,0.06237793,-31.311035,-9.460449,-133.05664
210489,1.2102051,0.09875488,0.060546875,-28.076172,-7.507324,-138.42773
210499,1.2408447,0.10217285,0.05126953,-25.20752,-6.3476562,-141.11328
210509,1.2631836,0.10986328,0.009887695,-22.949219,-6.3476562,-141.90674
210519,1.2705078,0.118652344,-0.072265625,-21.54541,-5.9814453,-140.68604
210529,1.24646,0.045288086,-0.0736084,-26.123047,-3.2348633,-137.81738
210539,1.177002,-0.10827637,-0.01928711,-32.65381,-0.48828125,-134.0332
210549,1.1779785,-0.23425293,-0.0030517578,-40.527344,-1.0986328,-131.53076
210559,1.22229,-0.22937012,0.047973633,-49.438477,-0.79345703,-131.95801
210569,1.2388916,-0.12524414,0.049682617,-49.621582,-0.30517578,-131.46973
210589,1.1420898,-0.26818848,0.061767578,-50.964355,1.7089844,-119.4458
210599,1.1413574,-0.35266113,0.07775879,-50.354004,3.6621094,-114.868164
210609,1.1230469,-0.3831787,0.072631836,-42.60254,5.004883,-111.14502
210619,1.0904541,-0.35656738,-0.057006836,-30.456543,5.859375,-106.32324
210660,0.9111328,-0.40185547,-0.04626465,-25.634766,8.544922,-65.49072
210669,0.9156494,-0.38305664,-0.05517578,-22.399902,6.286621,-53.16162
210679,0.90393066,-0.34765625,-0.028686523,-18.188477,5.6152344,-41.931152
210689,0.87719727,-0.352417,-0.017578125,-12.145996,5.554199,-31.738281
210699,0.8691406,-0.38110352,-0.033325195,-8.483887,5.065918,-22.888184
210709,0.89001465,-0.38867188,-0.05444336,-5.493164,3.7841797,-15.075684
210719,0.9066162,-0.33520508,-0.09240723,-1.4038086,2.0751953,-7.6904297
210729,0.9036865,-0.25585938,-0.15820312,1.8310547,-15.50293,9.338379
210749,0.9000244,-0.1451416,-0.21948242,-6.5307617,-4.5776367,28.076172
210769,0.9914551,-0.16772461,-0.28930664,-13.122559,-8.544922,43.273926
210779,0.97509766,-0.1907959,-0.39208984,-11.169434,-11.230469,52.67334
210789,1.1212158,-0.25134277,-0.5592041,-13.183594,-13.427734,65.91797
210799,1.435791,0.24938965,-0.5826416,-11.779785,-8.361816,64.27002
210809,1.6848145,0.9451904,0.29138184,-21.728516,4.1503906,54.504395
210819,1.496582,1.1103516,0.41210938,13.916016,0.24414062,51.086426
210829,1.2271729,0.41430664,0.13464355,78.91846,-13.977051,67.07764
210839,1.0310059,-0.18261719,0.07775879,66.16211,-15.319824,85.32715
210849,0.99365234,-0.5119629,0.056884766,12.939453,-13.671875,87.09717
210859,1.0405273,-0.4744873,0.095458984,-13.85498,-15.441895,76.47705
210869,1.0155029,-0.13903809,0.1270752,-8.483887,-18.737793,61.950684
210879,0.97961426,0.16113281,0.17285156,1.0375977,-21.42334,55.236816
210889,0.96850586,0.2775879,0.15185547,-5.3710938,-22.216797,58.95996
210899,0.9766846,0.24316406,0.09729004,-39.245605,-23.498535,71.77734
210919,0.9382324,-0.27783203,-0.43408203,-38.269043,-31.677246,68.29834
210929,1.0178223,-0.4239502,-0.45166016,-23.31543,-34.179688,57.434082
210939,1.1429443,-0.46020508,-0.29943848,-2.380371,-32.714844,46.99707
210949,1.1148682,-0.3421631,-0.19628906,17.700195,-30.822754,36.987305
210959,1.008667,-0.17333984,-0.21228027,36.743164,-30.334473,28.686523
210969,0.9604492,-0.024169922,-0.25500488,50.720215,-29.60205,23.68164
210979,0.9873047,0.06677246,-0.25073242,53.40576,-26.97754,20.996094
210989,1.0404053,0.038085938,-0.1796875,51.330566,-23.864746,21.057129
210999,1.0556641,0.048583984,-0.13049316,49.316406,-21.850586,22.155762
211009,1.0423584,0.1270752,-0.12023926,39.733887,-21.057129,22.766113
211019,1.026123,0.23693848,-0.13720703,27.22168,-20.385742,25.024414
211029,1.006958,0.25720215,-0.13366699,12.512207,-19.16504,29.846191
211039,0.99572754,0.1607666,-0.15100098,-1.5258789,-18.005371,35.339355
211049,0.993042,0.016113281,-0.17041016,-12.512207,-17.27295,38.57422
211059,0.98327637,-0.107666016,-0.20336914,-15.441895,-16.418457,36.621094
211079,0.98950195,-0.28515625,-0.21032715,8.422852,-15.258789,27.46582
211099,0.9951172,-0.24365234,-0.19921875,28.198242,-15.258789,16.174316
211109,0.98461914,-0.17749023,-0.2043457,37.231445,-15.74707,10.986328
211119,0.9814453,-0.1184082,-0.20837402,43.33496,-15.991211,7.2021484
211129,0.9941406,-0.07507324,-0.19677734,45.288086,-15.563965,5.1879883
211139,1.0041504,-0.044311523,-0.18237305,44.311523,-14.953613,4.638672
211149,0.9962158,-0.014404297,-0.16589355,42.907715,-14.587402,5.004883
211159,0.979126,0.0126953125,-0.15319824,40.71045,-14.221191,5.859375
211169,0.975708,0.013793945,-0.14697266,37.65869,-14.038086,7.507324
211179,0.98669434,-0.020874023,-0.15698242,33.203125,-13.61084,9.277344
211189,0.99157715,-0.043823242,-0.16479492,28.503418,-13.061523,10.498047
211199,0.9916992,-0.016479492,-0.1895752,25.939941,-12.756348,11.535645
211209,0.9880371,0.047729492,-0.21472168,24.475098,-12.329102,13.000488
211219,0.98620605,0.088256836,-0.2541504,23.925781,-11.901855,15.625
211239,0.9803467,-0.088378906,-0.22424316,24.291992,-8.056641,24.902344
211259,0.9671631,-0.04663086,-0.14147949,25.6958,-8.361816,25.634766
211269,0.98620605,-0.031982422,-0.15124512,28.320312,-9.033203,26.794434
211279,1.00354,-0.022338867,-0.16186523,27.282715,-9.338379,28.869629
211289,0.9987793,-0.005859375,-0.19091797,24.963379,-9.643555,31.433105
211310,0.97558594,0.0037841797,-0.24279785,22.705078,-9.094238,37.53662
211319,0.97558594,-0.047851562,-0.21606445,23.4375,-8.605957,40.771484
211329,0.98986816,-0.099243164,-0.20239258,23.19336,-8.300781,43.273926
211339,0.99780273,-0.12939453,-0.18737793,23.132324,-8.056641,44.73877
211349,0.9987793,-0.12158203,-0.17602539,23.07129,-8.239746,45.959473
211359,0.99780273,-0.09423828,-0.2097168,22.033691,-8.422852,47.48535
211369,0.99853516,-0.09716797,-0.15673828,22.827148,-7.9956055,49.49951
211379,1.0197754,-0.16015625,-0.16333008,23.254395,-8.056641,52.124023
211389,1.0318604,-0.19995117,-0.17956543,20.019531,-6.8359375,54.6875
211409,1.0802002,-0.20922852,-0.22485352,16.052246,-5.126953,56.33545
211429,1.1048584,-0.26330566,-0.23828125,14.953613,-2.5024414,59.448242
211439,1.1077881,-0.25427246,-0.049804688,15.380859,-0.9765625,62.072754
211449,1.0949707,-0.17919922,-0.2626953,8.911133,1.0375977,61.645508
211459,1.076294,-0.15063477,-0.21569824,17.39502,2.2583008,61.462402
211469,1.1295166,-0.18725586,-0.25341797,13.48877,4.5776367,65.36865
211479,1.1584473,-0.20703125,-0.26416016,8.850098,6.652832,69.70215
211489,1.2181396,-0.23486328,-0.27490234,9.643555,8.666992,72.44873
211499,1.3441162,-0.22631836,-0.31640625,9.338379,11.779785,75.19531
211509,1.4465332,-0.15454102,-0.39038086,5.3710938,18.615723,77.39258
211519,1.4729004,-0.07128906,-0.3696289,4.638672,21.30127,81.726074
211529,1.4754639,-0.014282227,-0.32312012,9.765625,20.874023,91.06445
211539,1.4542236,0.025634766,-0.25463867,16.540527,22.827148,101.80664
211549,1.4350586,0.06994629,-0.22229004,20.690918,23.4375,122.19238
211569,1.5770264,0.07409668,-0.05407715,41.381836,21.972656,141.17432
211589,1.7436523,0.23400879,-0.17150879,63.415527,17.39502,153.74756
211599,1.7709961,0.3187256,-0.15820312,73.42529,14.465332,158.56934
211609,1.7769775,0.33447266,-0.16430664,81.848145,10.7421875,158.75244
211619,1.7581787,0.37939453,-0.28710938,82.27539,5.7373047,151.24512
211629,1.588501,0.38183594,-0.24279785,77.45361,4.333496,140.01465
211639,1.3028564,0.11254883,-0.32409668,78.24707,4.5166016,138.5498
211649,1.0898438,-0.17138672,-0.70495605,44.921875,7.1411133,156.49414
211659,1.0914307,-0.35253906,-0.6361084,-63.90381,6.1035156,177.30713
211669,1.2147217,-0.42614746,-0.04626465,-124.938965,4.1503906,180.05371
211679,1.2272949,-0.41711426,-0.31518555,-58.22754,2.1972656,164.18457
211689,1.1318359,-0.46447754,-0.18859863,30.944824,2.0751953,132.56836
211699,1.0402832,-0.35205078,-0.12597656,74.70703,-0.4272461,88.256836
211709,0.95422363,0.095581055,-0.08496094,103.45459,-3.112793,42.48047
211719,0.7751465,0.5854492,-0.06213379,102.53906,-1.2207031,-16.235352
211739,0.3922119,0.5900879,-0.21203613,63.293457,2.8076172,-34.42383
211759,0.40478516,0.3840332,-0.21923828,-2.2583008,4.9438477,-65.30762
211769,0.4013672,0.27478027,-0.20324707,-17.211914,5.92041,-84.28955
211779,0.42980957,0.11828613,-0.2052002,-27.526855,4.8828125,-101.257324
211789,0.48449707,-0.0040283203,-0.25561523,-39.55078,1.4648438,-117.79785
211799,0.52941895,-0.043945312,-0.2614746,-53.466797,-0.7324219,-136.41357
211809,0.5443115,-0.017333984,-0.21960449,-61.950684,-1.4648438,-154.84619
211819,0.5493164,0.018798828,-0.2076416,-64.14795,-2.6855469,-170.41016
211829,0.5991211,0.022583008,-0.21972656,-66.16211,-4.272461,-182.61719
211839,0.694458,0.009521484,-0.25,-69.39697,-5.1879883,-193.54248
211849,0.8041992,-0.026611328,-0.26672363,-74.95117,-4.699707,-204.1626
211859,0.8914795,-0.06994629,-0.2791748,-82.458496,-3.0517578,-214.2334
211869,0.9342041,-0.11804199,-0.25048828,-90.33203,-1.7089844,-222.90039
211879,0.99572754,-0.17163086,-0.2532959,-96.13037,14.6484375,-235.4126
211899,1.3638916,-0.40307617,-0.20861816,-98.51074,1.4038086,-246.09375
211919,1.5108643,-0.50561523,-0.14538574,-95.15381,3.479004,-251.2207
211929,1.5406494,-0.65234375,-0.08654785,-91.18652,5.3710938,-253.54004
211939,1.6789551,-0.85302734,-0.1361084,-79.711914,6.713867,-259.46045
211949,1.8082275,-1.026123,-0.15649414,-66.223145,10.192871,-269.34814
211959,1.7375488,-1.0238037,-0.20788574,-46.26465,12.6953125,-278.1372
211969,1.5700684,-0.88061523,-0.31518555,-16.601562,11.779785,-278.3203
211979,1.4606934,-0.73376465,-0.34399414,7.2021484,8.178711,-268.79883
211989,1.4477539,-0.70495605,-0.3026123,12.329102,3.0517578,-252.99072
211999,1.4711914,-0.7803955,-0.2602539,7.3242188,-2.9296875,-234.43604
212009,1.465332,-0.8781738,-0.20593262,8.239746,-9.277344,-216.24756
212019,1.4434814,-0.94555664,-0.09802246,16.967773,-14.770508,-200.0122
212029,1.4031982,-0.9394531,-0.02758789,23.4375,-19.348145,-184.99756
212039,1.3363037,-0.8897705,0.021728516,18.615723,-21.606445,-168.94531
212049,1.324707,-0.9404297,0.10998535,-10.681152,-14.587402,-139.52637
212069,0.876709,-1.4074707,-0.02746582,-36.621094,-9.521484,-72.81494
212079,0.8063965,-1.3334961,-0.09460449,-38.94043,-8.544922,-36.315918
212089,0.7805176,-1.1574707,-0.18908691,-36.193848,-7.2021484,-3.2348633
212099,0.8265381,-1.0228271,-0.26086426,-36.315918,-6.591797,29.11377
212109,0.93408203,-0.9803467,-0.27783203,-42.175293,-6.3476562,59.87549
212119,1.0456543,-1.0032959,-0.31201172,-44.555664,-6.652832,85.57129
212129,1.0983887,-1.0015869,-0.368042,-34.301758,-7.507324,104.61426
212139,1.0859375,-0.94836426,-0.40283203,-17.089844,-7.5683594,118.896484
212149,1.2984619,-0.5533447,-0.7573242,-5.7373047,-6.164551,123.84033
212159,2.4404297,0.8898926,-1.038208,-45.532227,19.53125,110.961914
212169,2.157837,3.9577637,2.9749756,-150.26855,47.60742,60.2417
212179,1.244873,1.692627,0.6295166,110.4126,-2.6245117,53.28369
212189,0.9658203,-0.060668945,0.15600586,315.24658,-21.606445,142.45605
212199,1.5847168,-2.7581787,-0.97387695,47.180176,-9.94873,231.2622
212209,1.5505371,-1.2758789,0.059692383,-178.83301,3.7841797,111.26709
212229,0.96777344,-0.23059082,-0.17456055,56.640625,-38.81836,98.87695
212249,0.9321289,-0.2241211,-0.017333984,-67.07764,-20.385742,84.350586
212259,0.854126,-0.3572998,-0.39624023,-36.315918,-30.456543,80.93262
212269,0.9472656,-0.31518555,-0.5045166,-21.78955,-30.822754,71.47217
212279,0.9929199,-0.20324707,-0.32580566,-27.648926,-22.888184,59.631348
212289,0.9818115,-0.25390625,-0.24743652,-18.188477,-17.333984,52.67334
212299,0.99450684,-0.41809082,-0.32714844,6.8359375,-16.601562,48.15674
212309,1.0544434,-0.505249,-0.3972168,29.11377,-16.845703,40.100098
212319,1.0393066,-0.42468262,-0.3071289,51.3916,-17.211914,28.137207
212329,1.0244141,-0.29260254,-0.24230957,80.200195,-20.080566,18.188477
212339,0.998291,-0.16186523,-0.23205566,99.3042,-21.850586,10.986328
212349,0.9777832,-0.010620117,-0.21679688,95.15381,-19.16504,4.638672
212359,0.9802246,0.11743164,-0.123413086,79.711914,-15.136719,1.953125
212369,1.0097656,0.12133789,-0.06896973,64.88037,-13.061523,4.3945312
212389,1.029541,0.07678223,-0.20227051,28.137207,-12.084961,12.084961
212409,0.98205566,0.05126953,-0.27001953,29.724121,-10.498047,19.16504
212419,0.9942627,-0.029541016,-0.25195312,28.015137,-8.178711,21.54541
212429,0.9836426,-0.083740234,-0.23950195,20.812988,-6.4086914,21.362305
212439,0.95703125,-0.1640625,-0.17175293,23.986816,-6.4086914,20.141602
212449,0.93725586,-0.2019043,-0.14099121,32.65381,-7.080078,18.066406
212459,0.9752197,-0.16723633,-0.13330078,34.301758,-7.507324,15.625
212469,0.9984131,-0.045043945,-0.14013672,35.03418,-7.6293945,13.427734
212479,1.0147705,0.079833984,-0.15588379,36.132812,-7.873535,14.953613
212489,1.0161133,0.1706543,-0.20812988,32.592773,-7.8125,19.65332
212499,1.0080566,0.21057129,-0.24768066,24.230957,-6.164551,25.817871
212509,0.9954834,0.16296387,-0.24365234,16.540527,-3.4179688,33.081055
212519,0.9929199,0.07006836,-0.2130127,11.535645,-1.5258789,39.55078
212529,0.97998047,-0.03161621,-0.18310547,9.765625,-0.36621094,44.433594
212539,0.9777832,-0.08850098,-0.2076416,10.864258,0.12207031,48.64502
212559,0.9766846,-0.087890625,-0.14660645,11.108398,0.36621094,55.603027
212579,1.005249,-0.22338867,-0.15710449,10.437012,-0.24414062,57.739258
212589,1.0181885,-0.24707031,-0.16247559,14.526367,-1.2207031,57.86133
212599,1.0169678,-0.23022461,-0.15881348,19.470215,-2.1362305,57.495117
212609,1.0281982,-0.19909668,-0.16430664,24.597168,-3.3569336,57.556152
212619,1.0515137,-0.17675781,-0.18847656,27.160645,-3.2958984,58.410645
212629,1.0679932,-0.15136719,-0.18945312,24.841309,-1.7700195,59.99756
212639,1.0935059,-0.15112305,-0.16235352,23.31543,-1.2817383,62.25586
212649,1.1312256,-0.19567871,-0.16345215,24.597168,-1.8920898,65.85693
212659,1.1903076,-0.17175293,0.011474609,24.658203,-0.8544922,69.70215
212669,1.1755371,-0.12097168,-0.0056152344,13.61084,1.0986328,69.0918
212679,1.1430664,-0.107666016,-0.0040283203,17.700195,-0.18310547,71.5332
212689,1.112793,-0.11303711,-0.0020751953,10.314941,0.5493164,76.72119
212699,1.0826416,-0.07446289,0.005493164,1.4648438,2.319336,84.47266
212719,1.1229248,-0.10449219,-0.20373535,-16.784668,12.084961,95.336914
212739,1.2783203,-0.2052002,-0.2401123,-19.16504,13.000488,107.84912
212749,1.3061523,-0.22546387,-0.25720215,-17.456055,12.817383,113.342285
212759,1.385376,-0.2010498,-0.21679688,-13.244629,12.939453,118.04199
212769,1.574585,-0.16174316,-0.44213867,-9.094238,17.39502,122.07031
212779,1.684082,0.027832031,-0.2972412,-8.544922,25.268555,125.12207
212789,1.7832031,0.16345215,-0.39245605,-3.3569336,19.714355,135.49805
212799,1.8699951,0.27746582,-0.37524414,9.82666,19.104004,152.83203
212809,1.9089355,0.4378662,-0.3647461,16.113281,19.714355,165.46631
212819,2.020752,0.4091797,-0.37683105,29.47998,16.052246,178.89404
212829,2.1411133,0.34228516,-0.31347656,53.894043,14.953613,190.6128
212839,2.3068848,0.321167,-0.27416992,83.984375,14.587402,193.54248
212849,2.395874,0.56225586,-0.25756836,104.37012,11.84082,182.92236
212859,2.0810547,0.53100586,0.009765625,136.71875,11.779785,164.30664
212869,1.5192871,0.1652832,-0.23425293,194.94629,20.812988,176.75781
212889,1.3532715,-0.026367188,-0.22424316,-180.23682,23.925781,187.07275
212909,1.0860596,0.3914795,-0.09375,-50.720215,11.535645,145.87402
212919,0.8413086,-0.09338379,-0.52563477,36.987305,2.1362305,116.51611
212929,0.6320801,-0.4696045,-0.47436523,44.86084,3.0517578,70.98389
212939,0.5214844,-0.19885254,-0.2984619,19.226074,2.8686523,13.48877
212949,0.39160156,0.37353516,-0.010864258,14.404297,5.004883,-44.49463
212959,0.18896484,0.82177734,0.0056152344,34.240723,1.7089844,-88.256836
212969,0.040771484,0.8145752,-0.14331055,53.710938,-3.7841797,-107.60498
212979,0.036254883,0.55029297,-0.17834473,47.11914,-5.493164,-112.36572
212989,0.1159668,0.32495117,-0.14123535,11.413574,-5.493164,-121.154785
212999,0.33496094,0.15258789,-0.06188965,-25.390625,-6.1035156,-137.08496
213009,0.5357666,0.11206055,-0.061035156,-36.8042,-7.9345703,-158.56934
213019,0.6767578,0.08068848,-0.09338379,-29.418945,-9.765625,-177.6123
213029,0.7573242,-0.005493164,-0.10217285,-24.536133,-11.779785,-200.80566
213049,0.7590332,-0.1138916,0.05419922,-52.91748,-19.470215,-230.34668
213069,0.89746094,-0.021362305,0.06213379,-50.231934,-23.19336,-252.0752
213079,1.0313721,-0.09667969,0.043945312,-47.851562,-21.850586,-257.1411
213089,1.1699219,-0.2166748,0.052734375,-46.26465,-18.371582,-262.45117
213099,1.2679443,-0.36584473,0.07287598,-45.166016,-14.221191,-268.9209
213109,1.340332,-0.47827148,0.111328125,-44.006348,-10.314941,-277.22168
213119,1.4223633,-0.529541,0.14416504,-37.04834,-7.9345703,-286.01074
213129,1.5472412,-0.52282715,0.12036133,-24.108887,-6.958008,-292.84668
213139,1.6879883,-0.5111084,0.13415527,-14.038086,-5.3100586,-296.32568
213149,1.8392334,-0.63720703,0.11743164,-11.169434,-4.4555664,-296.2036
213159,1.947998,-0.8133545,0.12438965,-17.333984,-3.0517578,-296.99707
213169,1.9189453,-0.86950684,0.17883301,-27.893066,0.8544922,-301.5747
213179,1.7930908,-0.8424072,0.104003906,-33.569336,4.638672,-305.48096
213189,1.6982422,-0.7796631,-0.13781738,-32.958984,7.080078,-303.833
213199,1.6116943,-0.6392822,-0.36242676,-37.231445,5.493164,-273.68164
213210,1.6558838,-0.7381592,-0.47338867,-53.222656,-1.4038086,-246.21582
213229,1.6147461,-1.3730469,-0.23217773,-58.044434,-11.962891,-192.68799
213239,1.3502197,-1.4768066,-7.324219E-4,-49.804688,-10.131836,-169.49463
213249,1.1373291,-1.6031494,0.028198242,-37.65869,-5.92041,-144.77539
213259,0.9934082,-1.7735596,-0.14135742,-26.611328,-3.1738281,-118.16406
213269,0.9876709,-1.9304199,-0.2680664,-17.150879,-2.746582,-92.40723
213279,0.7943115,-1.7888184,-0.25097656,-9.277344,-2.9907227,-67.68799
213289,0.78637695,-1.6682129,-0.25500488,-7.2631836,-4.699707,-19.40918
213299,0.8586426,-1.3065186,-0.24633789,-9.94873,-6.958008,31.25
213309,0.88586426,-0.9980469,-0.26367188,-11.230469,-7.2021484,68.17627
213319,0.9296875,-0.8913574,-0.30651855,-21.972656,-6.225586,97.65625
213329,0.97998047,-0.84350586,-0.36413574,-36.987305,-6.4697266,119.87305
213339,1.0283203,-0.76000977,-0.41796875,-48.034668,-9.216309,134.8877
213349,1.1561279,-0.5826416,-0.65356445,-52.734375,-12.268066,143.98193
213359,1.8717041,0.3638916,-1.5467529,-75.927734,26.184082,94.72656
213379,0.87158203,1.300415,0.6828613,269.40918,-27.09961,103.8208
213399,1.673584,-2.2768555,-0.49487305,-189.08691,-0.9765625,228.75977
213409,1.0061035,-0.9108887,0.8132324,-246.521,7.751465,150.20752
213419,0.32409668,-0.6968994,0.22851562,-78.91846,-28.381348,123.53516
213429,0.5374756,-0.99035645,-0.3232422,62.561035,-55.114746,113.586426
213439,1.352417,-0.77233887,-0.049926758,51.635742,-42.419434,91.12549
213449,1.5662842,-0.4703369,0.16003418,7.019043,-32.409668,74.523926
213459,1.1787109,-0.23266602,-0.16918945,9.765625,-42.785645,65.67383
213469,0.9892578,-0.18164062,-0.46362305,31.61621,-52.124023,63.354492
213479,0.9625244,0.01184082,-0.526001,28.930664,-48.40088,57.434082
213489,0.95751953,0.15979004,-0.4753418,17.089844,-36.743164,52.79541
213499,0.9746094,0.07348633,-0.58361816,21.30127,-26.733398,53.894043
213509,0.98461914,-0.15710449,-0.5753174,38.269043,-19.65332,54.07715
213519,1.0285645,-0.38757324,-0.4083252,53.833008,-15.075684,34.42383
213539,1.0349121,-0.20605469,-0.08874512,62.13379,-9.94873,20.568848
213559,1.0019531,0.1027832,-0.021972656,50.109863,-9.82666,14.892578
213569,0.9782715,0.13867188,-0.0107421875,36.56006,-10.253906,17.578125
213579,0.98083496,0.06958008,-0.061157227,28.808594,-10.620117,22.094727
213589,0.9863281,-0.026000977,-0.1204834,17.944336,-9.521484,25.390625
213599,0.98779297,-0.07006836,-0.17199707,9.094238,-8.728027,26.550293
213609,0.9986572,-0.103027344,-0.2388916,9.765625,-8.605957,26.672363
213619,0.9974365,-0.14880371,-0.21838379,12.451172,-8.300781,26.367188
213629,0.9842529,-0.18530273,-0.20874023,16.479492,-8.483887,25.32959
213639,0.97216797,-0.2208252,-0.21911621,22.583008,-8.666992,23.4375
213649,0.9613037,-0.20654297,-0.17114258,26.550293,-8.300781,20.568848
213659,0.9577637,-0.14746094,-0.14904785,28.930664,-8.666992,18.005371
213669,0.9581299,-0.064941406,-0.1217041,30.822754,-8.361816,16.784668
213679,0.9876709,0.03173828,-0.12414551,29.47998,-8.361816,18.127441
213689,1.0117188,0.052124023,-0.13354492,25.634766,-7.019043,26.794434
213709,0.9873047,-0.06555176,-0.13964844,5.7373047,-5.7373047,34.606934
213729,0.98217773,-0.16516113,-0.14550781,8.361816,-6.164551,38.269043
213739,0.9802246,-0.17687988,-0.15612793,8.972168,-5.92041,38.33008
213749,1.0058594,-0.17651367,-0.16381836,9.70459,-6.0424805,38.45215
213759,0.99121094,-0.13122559,-0.15917969,12.207031,-6.652832,39.001465
213769,0.98327637,-0.15490723,-0.16833496,15.686035,-7.2631836,40.95459
213779,1.0386963,-0.18701172,-0.17211914,21.118164,-7.385254,42.175293
213789,1.0963135,-0.19128418,-0.18664551,24.902344,-7.019043,42.48047
213811,1.0738525,-0.1439209,-0.24328613,27.404785,-6.958008,45.898438
213820,1.0994873,-0.087402344,-0.2121582,30.700684,-5.859375,48.461914
213830,1.1314697,-0.10534668,-0.16601562,34.79004,-5.859375,53.28369
213840,1.2055664,-0.19543457,-0.19189453,32.77588,-5.004883,61.828613
213860,1.1882324,0.006591797,-0.01159668,24.963379,-1.953125,67.68799
213870,1.1564941,0.016479492,-0.022460938,13.183594,0.6713867,73.97461
213880,1.1306152,-0.008911133,-0.041748047,3.9672852,2.746582,80.68848
213890,1.1420898,-0.05859375,-0.10083008,-3.6621094,5.3710938,87.28027
213900,1.161377,-0.08483887,-0.16967773,-8.605957,8.666992,92.46826
213910,1.2265625,-0.10437012,-0.28527832,-10.620117,11.352539,98.20557
213920,1.2849121,-0.13842773,-0.31054688,-10.498047,14.587402,104.37012
213930,1.3239746,-0.17529297,-0.32580566,-7.6904297,15.930176,110.47363
213940,1.3653564,-0.2010498,-0.30895996,-3.8452148,16.296387,117.126465
213950,1.4395752,-0.17810059,-0.2409668,1.6479492,17.211914,123.22998
213960,1.5770264,-0.107543945,-0.4033203,4.9438477,22.888184,128.05176
213970,1.6724854,0.091918945,-0.28466797,3.7841797,31.61621,129.94385
213980,1.7619629,0.22644043,-0.35864258,12.207031,27.648926,138.73291
213990,1.8677979,0.30847168,-0.34765625,29.174805,25.6958,156.67725
214000,1.9293213,0.4169922,-0.34326172,47.24121,25.146484,184.81445
214020,2.2164307,0.49499512,-0.19921875,101.5625,16.418457,188.65967
214040,1.7879639,0.46374512,-0.03112793,134.8877,12.451172,156.61621
214050,1.3483887,0.15930176,-0.2722168,201.84326,24.353027,153.74756
214060,1.1534424,-0.27734375,-1.0670166,148.07129,27.282715,172.85156
214070,1.2414551,-0.33068848,-0.93359375,-50.476074,23.68164,182.86133
214080,1.505249,-0.15515137,-0.29138184,-174.19434,18.615723,182.73926
214090,1.4780273,0.12097168,0.1973877,-144.16504,16.662598,172.48535
214100,1.3100586,-0.012329102,-0.36206055,-25.20752,8.361816,154.72412
214110,0.95373535,-0.5407715,-0.42285156,47.180176,2.8686523,123.71826
214120,0.7504883,-0.6035156,-0.43273926,40.95459,-1.4648438,72.81494
214130,0.6312256,-0.11352539,-0.17102051,24.169922,-1.3427734,12.268066
214140,0.41027832,0.4567871,0.012939453,39.733887,-0.48828125,-40.771484
214150,0.1574707,0.7384033,-0.053710938,67.0166,-4.8217773,-73.73047
214160,0.05053711,0.6101074,-0.15588379,69.885254,-8.544922,-86.120605
214180,0.103393555,0.15222168,-0.06530762,-23.31543,-9.033203,-120.84961
214200,0.48620605,0.14355469,-0.123168945,-34.484863,-12.023926,-155.39551
214210,0.47705078,0.10913086,-0.11230469,-40.58838,-15.075684,-169.37256
214220,0.5303955,0.021362305,-0.22680664,-47.36328,-20.263672,-181.57959
214230,0.58251953,-0.041137695,-0.2397461,-62.74414,-22.705078,-196.71631
214240,0.59814453,0.024047852,-0.1661377,-76.538086,-22.583008,-216.24756
214250,0.5875244,0.11218262,-0.15942383,-79.711914,-22.705078,-231.75049
214260,0.6365967,0.052001953,-0.16271973,-74.76807,-24.169922,-239.13574
214270,0.75549316,-0.11608887,-0.17785645,-64.7583,-24.475098,-242.79785
214280,0.9421387,-0.2581787,-0.12365723,-59.692383,-22.277832,-250.12207
214290,1.1049805,-0.32861328,-0.015014648,-57.9834,-18.798828,-260.7422
214300,1.1976318,-0.4284668,0.05041504,-49.1333,-17.456055,-268.43262
214310,1.2921143,-0.5650635,0.011230469,-34.973145,-19.714355,-271.72852
214320,1.4616699,-0.63671875,-0.07128906,-24.414062,-21.728516,-276.9165
214330,1.6451416,-0.6356201,-0.041625977,-13.977051,-16.418457,-292.41943
214350,1.876831,-1.0535889,0.18200684,-17.27295,-16.418457,-300.29297
214370,1.6870117,-0.79052734,0.017089844,-48.88916,-16.967773,-323.4253
214380,1.602417,-0.23168945,-0.23962402,-57.678223,-20.263672,-320.37354
214390,1.6604004,-0.0703125,-0.45788574,-80.93262,-25.268555,-294.6167
214400,1.7408447,-0.33154297,-0.5345459,-118.28613,-28.320312,-257.93457
214410,1.7373047,-0.7746582,-0.43041992,-136.47461,-24.780273,-220.8252
214420,1.7318115,-1.2319336,-0.21118164,-138.42773,-19.28711,-191.89453
214430,1.6569824,-1.4912109,-0.09851074,-133.91113,-16.784668,-171.32568
214440,1.4885254,-1.5826416,-0.07006836,-117.67578,-13.61084,-151.5503
214450,1.2370605,-1.7027588,-0.14343262,-90.51514,-9.216309,-130.18799
214460,0.93444824,-1.8515625,-0.19836426,-55.41992,-7.080078,-107.055664
214470,0.7799072,-1.9135742,-0.28930664,-12.390137,-8.422852,-81.970215
214480,0.73535156,-1.7548828,-0.12817383,15.991211,-9.643555,-59.265137
214490,0.75891113,-1.541748,-0.18530273,30.88379,-12.817383,1.0375977
214510,0.9782715,-0.9688721,-0.19873047,36.193848,-9.94873,68.29834
214529,1.0227051,-0.8121338,-0.4605713,18.493652,-14.526367,110.53467
214549,2.1680908,0.39208984,-1.3829346,-1.8310547,-0.36621094,112.73193
214559,2.6572266,3.3476562,2.7822266,-124.87793,46.203613,76.66016
214569,1.619873,3.1035156,0.9744873,-45.22705,11.047363,46.875
214579,0.8861084,1.3793945,0.8901367,241.63818,-20.507812,121.09375
214589,1.1674805,-2.1781006,-0.8477783,127.075195,-17.211914,250.12207
214599,1.3717041,-2.1235352,-0.42443848,-173.40088,5.493164,225.95215
214609,0.88342285,-0.9671631,0.58239746,-223.81592,16.418457,153.56445
214619,0.59729004,-0.67626953,-0.1352539,-85.754395,-18.493652,129.02832
214629,0.84924316,-0.7832031,-0.26879883,30.761719,-41.625977,107.84912
214639,1.517334,-0.68859863,-0.1998291,23.254395,-33.996582,94.60449
214649,1.3409424,-0.40820312,0.19995117,-49.865723,-22.583008,75.50049
214659,0.99694824,-0.3458252,-0.2647705,-45.22705,-34.362793,67.50488
214669,0.901001,-0.26220703,-0.68188477,2.0141602,-46.63086,61.523438
214689,0.9000244,-0.13989258,-0.42651367,27.954102,-18.737793,43.762207
214709,1.071167,-0.3684082,-0.3199463,50.354004,-10.620117,31.188965
214719,1.032959,-0.34960938,-0.20861816,65.73486,-10.620117,22.705078
214729,1.0057373,-0.24658203,-0.14501953,78.186035,-13.427734,13.549805
214739,0.9953613,-0.14624023,-0.11999512,81.848145,-15.625,5.2490234
214749,0.98535156,-0.044921875,-0.055541992,80.444336,-16.174316,0.61035156
214759,0.9638672,0.06298828,-0.011352539,69.58008,-16.418457,-1.2207031
214769,0.97436523,0.15002441,-0.06237793,54.56543,-17.150879,-0.61035156
214779,0.9980469,0.20666504,-0.12866211,42.175293,-16.784668,2.8686523
214789,1.029419,0.20446777,-0.18981934,31.188965,-16.357422,8.7890625
214799,1.0125732,0.16015625,-0.2434082,21.30127,-15.50293,14.587402
214809,0.9958496,0.07519531,-0.3223877,16.906738,-14.282227,19.226074
214819,1.0036621,-0.04724121,-0.36206055,16.662598,-12.084961,22.338867
214829,0.9975586,-0.14355469,-0.30444336,18.737793,-10.070801,22.583008
214839,0.96520996,-0.19335938,-0.21105957,24.719238,-10.559082,18.066406
214859,0.95532227,-0.013061523,-0.14685059,41.503906,-10.925293,12.573242
214879,1.0206299,0.17102051,-0.18762207,38.635254,-10.986328,17.27295
214889,1.0223389,0.22265625,-0.21911621,32.409668,-10.437012,23.4375
214899,1.0114746,0.21386719,-0.24230957,26.428223,-9.460449,31.49414
214909,0.9941406,0.15136719,-0.23278809,19.16504,-7.9956055,39.245605
214919,0.921875,-0.0061035156,-0.17797852,13.000488,-6.5307617,45.22705
214929,1.0169678,-0.04284668,-0.21228027,12.207031,-5.859375,47.973633
214939,0.993042,-0.046020508,-0.19909668,11.901855,-5.126953,50.53711
214949,0.9736328,-0.05090332,-0.1965332,12.207031,-5.3710938,53.03955
214959,0.9682617,-0.09643555,-0.20300293,14.465332,-5.6152344,55.236816
214969,0.98706055,-0.12182617,-0.20214844,15.441895,-5.554199,56.33545
214979,1.010498,-0.15661621,-0.20483398,17.456055,-5.859375,57.006836
214989,1.0285645,-0.19433594,-0.2084961,20.019531,-6.4697266,57.617188
214999,1.0386963,-0.20275879,-0.23815918,21.057129,-7.1411133,57.678223
215019,1.072998,-0.15551758,-0.24914551,30.029297,-6.652832,59.87549
215039,1.1103516,-0.14245605,-0.1965332,29.724121,-4.272461,65.42969
215049,1.1595459,-0.20007324,-0.26306152,28.747559,-3.8452148,70.129395
215059,1.1900635,-0.12011719,0.012939453,27.160645,-2.6245117,73.18115
215069,1.1594238,-0.114746094,-0.06225586,24.108887,-1.8920898,73.24219
215079,1.1340332,-0.10449219,-0.01184082,20.324707,-2.1362305,76.9043
215089,1.1004639,-0.091430664,-0.05810547,10.498047,-1.159668,81.17676
215099,1.0631104,-0.064819336,-0.09643555,3.1738281,0.79345703,84.8999
215109,1.0710449,-0.076660156,-0.21398926,-2.380371,2.8686523,89.660645
215119,1.1130371,-0.099243164,-0.2836914,-5.432129,5.432129,95.21484
215129,1.1712646,-0.13061523,-0.3363037,-6.225586,7.5683594,101.44043
215139,1.2242432,-0.15759277,-0.34887695,-5.126953,8.7890625,108.03223
215149,1.2696533,-0.17980957,-0.34838867,-1.4648438,9.460449,114.01367
215159,1.317749,-0.18579102,-0.31591797,3.479004,10.131836,119.68994
215169,1.4368896,-0.19152832,-0.3199463,6.713867,22.033691,128.05176
215189,1.7338867,0.08679199,-0.383667,9.521484,18.981934,142.33398
215209,2.0268555,0.38415527,-0.27722168,31.25,18.127441,165.16113
215219,2.1776123,0.28503418,-0.103759766,50.109863,17.700195,175.04883
215229,2.2670898,0.12817383,0.050048828,84.47266,17.76123,181.03027
215239,2.3276367,0.14770508,0.016113281,130.5542,18.127441,175.10986
215249,2.0535889,0.6159668,-0.25512695,168.02979,11.230469,161.74316
215259,1.7154541,0.75878906,-0.16040039,184.63135,9.82666,151.67236
215269,1.3037109,0.3996582,-0.3540039,221.31348,18.554688,150.8789
215279,1.048584,-0.07055664,-1.0704346,195.4956,18.249512,164.79492
215289,1.0379639,-0.6062012,-1.2861328,5.6152344,14.282227,171.50879
