time,aX,aY,aZ,gX,gY,gZ
106194,0.9250488,-0.2947998,0.25708008,-0.24414062,-2.9296875,-0.8544922
106204,0.9267578,-0.2935791,0.25524902,-0.36621094,-3.1738281,-0.79345703
106214,0.927124,-0.29626465,0.25219727,-0.18310547,-3.2958984,-0.79345703
106224,0.92822266,-0.30090332,0.24780273,0.18310547,-3.3569336,-0.91552734
106234,0.93273926,-0.29736328,0.24487305,0.61035156,-3.2348633,-1.2207031
106254,0.9346924,-0.28845215,0.25256348,-0.061035156,-2.8076172,-1.5258789
106264,0.9324951,-0.28674316,0.25048828,-0.5493164,-2.8076172,-1.3427734
106244,0.9359131,-0.289917,0.24829102,0.48828125,-2.9296875,-1.5258789
106274,0.9289551,-0.29626465,0.24707031,15.197754,-2.5634766,-1.2207031
106254,0.9346924,-0.28845215,0.25256348,-0.061035156,-2.8076172,-1.5258789
106294,0.9206543,-0.30200195,0.2541504,1.7089844,-2.8686523,-1.0986328
106264,0.9324951,-0.28674316,0.25048828,-0.5493164,-2.8076172,-1.3427734
106274,0.9289551,-0.29626465,0.24707031,15.197754,-2.5634766,-1.2207031
106294,0.9206543,-0.30200195,0.2541504,1.7089844,-2.8686523,-1.0986328
106314,0.9223633,-0.29003906,0.25256348,1.2207031,-3.7841797,-0.91552734
106314,0.9223633,-0.29003906,0.25256348,1.2207031,-3.7841797,-0.91552734
106324,0.9276123,-0.28356934,0.24584961,0.6713867,-4.0893555,-0.7324219
106324,0.9276123,-0.28356934,0.24584961,0.6713867,-4.0893555,-0.7324219
106334,0.93200684,-0.28442383,0.24023438,0.12207031,-3.9672852,-0.48828125
106334,0.93200684,-0.28442383,0.24023438,0.12207031,-3.9672852,-0.48828125
106344,0.93444824,-0.28918457,0.23706055,-0.30517578,-3.4179688,-0.4272461
106344,0.93444824,-0.28918457,0.23706055,-0.30517578,-3.4179688,-0.4272461
106354,0.93530273,-0.29223633,0.24365234,-0.36621094,-2.8076172,-0.5493164
106354,0.93530273,-0.29223633,0.24365234,-0.36621094,-2.8076172,-0.5493164
106364,0.93518066,-0.29638672,0.25183105,-0.061035156,-2.319336,-0.61035156
106364,0.93518066,-0.29638672,0.25183105,-0.061035156,-2.319336,-0.61035156
106374,0.9329834,-0.29589844,0.25646973,0.24414062,-2.4414062,-0.79345703
106374,0.9329834,-0.29589844,0.25646973,0.24414062,-2.4414062,-0.79345703
106384,0.93151855,-0.29467773,0.25830078,0.4272461,-2.746582,-0.91552734
106384,0.93151855,-0.29467773,0.25830078,0.4272461,-2.746582,-0.91552734
106394,0.9304199,-0.29553223,0.25561523,0.4272461,-3.2348633,-0.8544922
106394,0.9304199,-0.29553223,0.25561523,0.4272461,-3.2348633,-0.8544922
106404,0.9333496,-0.2952881,0.2475586,0.48828125,-3.479004,-0.8544922
106404,0.9333496,-0.2952881,0.2475586,0.48828125,-3.479004,-0.8544922
106414,0.9350586,-0.2944336,0.23962402,0.48828125,-3.540039,-0.8544922
106414,0.9350586,-0.2944336,0.23962402,0.48828125,-3.540039,-0.8544922
106424,0.93310547,-0.2947998,0.23547363,0.36621094,-3.112793,-0.8544922
106424,0.93310547,-0.2947998,0.23547363,0.36621094,-3.112793,-0.8544922
106434,0.9321289,-0.29431152,0.23718262,0.18310547,-2.5024414,-0.7324219
106434,0.9321289,-0.29431152,0.23718262,0.18310547,-2.5024414,-0.7324219
106454,0.9298096,-0.29675293,0.24633789,0.36621094,-2.0141602,-0.6713867
106454,0.9298096,-0.29675293,0.24633789,0.36621094,-2.0141602,-0.6713867
106474,0.9277344,-0.29370117,0.24658203,0.91552734,-2.1972656,-0.7324219
106484,0.930542,-0.29003906,0.24584961,0.91552734,-2.1972656,-0.8544922
106474,0.9277344,-0.29370117,0.24658203,0.91552734,-2.1972656,-0.7324219
106494,0.93115234,-0.29101562,0.2475586,0.61035156,-2.1972656,-0.79345703
106484,0.930542,-0.29003906,0.24584961,0.91552734,-2.1972656,-0.8544922
106494,0.93115234,-0.29101562,0.2475586,0.61035156,-2.1972656,-0.79345703
106504,0.93115234,-0.29418945,0.24645996,0.18310547,-2.1362305,-0.6713867
106504,0.93115234,-0.29418945,0.24645996,0.18310547,-2.1362305,-0.6713867
106514,0.93322754,-0.29748535,0.24560547,0.12207031,-1.8920898,-0.6713867
106514,0.93322754,-0.29748535,0.24560547,0.12207031,-1.8920898,-0.6713867
106524,0.93066406,-0.29943848,0.24841309,0.24414062,-1.7089844,-0.7324219
106524,0.93066406,-0.29943848,0.24841309,0.24414062,-1.7089844,-0.7324219
106534,0.9304199,-0.3005371,0.25317383,0.30517578,-1.5869141,-0.79345703
106534,0.9304199,-0.3005371,0.25317383,0.30517578,-1.5869141,-0.79345703
106544,0.9250488,-0.30065918,0.25476074,0.30517578,-1.7089844,-0.9765625
106544,0.9250488,-0.30065918,0.25476074,0.30517578,-1.7089844,-0.9765625
106554,0.9223633,-0.296875,0.25500488,0.61035156,-2.0751953,-0.9765625
106554,0.9223633,-0.296875,0.25500488,0.61035156,-2.0751953,-0.9765625
106564,0.92407227,-0.29406738,0.25341797,0.79345703,-2.6855469,-0.9765625
106564,0.92407227,-0.29406738,0.25341797,0.79345703,-2.6855469,-0.9765625
106574,0.9281006,-0.29089355,0.24841309,0.9765625,-2.9296875,-0.9765625
106574,0.9281006,-0.29089355,0.24841309,0.9765625,-2.9296875,-0.9765625
106584,0.93066406,-0.28674316,0.24584961,0.91552734,-2.8686523,-0.91552734
106584,0.93066406,-0.28674316,0.24584961,0.91552734,-2.8686523,-0.91552734
106594,0.93359375,-0.28771973,0.24072266,0.8544922,-2.8076172,-0.79345703
106594,0.93359375,-0.28771973,0.24072266,0.8544922,-2.8076172,-0.79345703
106604,0.93273926,-0.2890625,0.23693848,0.7324219,-2.2583008,-0.6713867
106604,0.93273926,-0.2890625,0.23693848,0.7324219,-2.2583008,-0.6713867
106624,0.9301758,-0.29382324,0.25024414,0.24414062,-1.5258789,-0.61035156
106624,0.9301758,-0.29382324,0.25024414,0.24414062,-1.5258789,-0.61035156
106634,0.92822266,-0.2977295,0.2548828,0.0,-1.6479492,-0.5493164
106634,0.92822266,-0.2977295,0.2548828,0.0,-1.6479492,-0.5493164
106644,0.9265137,-0.29785156,0.25610352,0.061035156,-1.8920898,-0.6713867
106644,0.9265137,-0.29785156,0.25610352,0.061035156,-1.8920898,-0.6713867
106654,0.9267578,-0.2977295,0.25585938,0.36621094,-2.1972656,-0.79345703
106654,0.9267578,-0.2977295,0.25585938,0.36621094,-2.1972656,-0.79345703
106664,0.9267578,-0.3005371,0.25549316,0.7324219,-2.5634766,-0.7324219
106664,0.9267578,-0.3005371,0.25549316,0.7324219,-2.5634766,-0.7324219
106674,0.9259033,-0.30065918,0.2532959,0.91552734,-2.9296875,-0.6713867
106674,0.9259033,-0.30065918,0.2532959,0.91552734,-2.9296875,-0.6713867
106684,0.9272461,-0.29858398,0.25061035,1.0375977,-3.1738281,-0.7324219
106684,0.9272461,-0.29858398,0.25061035,1.0375977,-3.1738281,-0.7324219
106694,0.9279785,-0.2935791,0.2487793,0.79345703,-3.1738281,-0.6713867
106694,0.9279785,-0.2935791,0.2487793,0.79345703,-3.1738281,-0.6713867
106704,0.927124,-0.29052734,0.2479248,0.36621094,-2.9907227,-0.61035156
106704,0.927124,-0.29052734,0.2479248,0.36621094,-2.9907227,-0.61035156
106714,0.92663574,-0.29052734,0.24914551,0.061035156,-2.8076172,-0.61035156
106714,0.92663574,-0.29052734,0.24914551,0.061035156,-2.8076172,-0.61035156
106724,0.9267578,-0.28918457,0.25061035,0.12207031,-2.6245117,-0.6713867
106724,0.9267578,-0.28918457,0.25061035,0.12207031,-2.6245117,-0.6713867
106734,0.9279785,-0.29125977,0.2508545,0.18310547,-2.5634766,-0.6713867
106744,0.9304199,-0.29370117,0.25195312,0.4272461,-2.6855469,-0.7324219
106734,0.9279785,-0.29125977,0.2508545,0.18310547,-2.5634766,-0.6713867
106754,0.932251,-0.29541016,0.25390625,0.4272461,-2.6855469,-0.8544922
106764,0.9324951,-0.2944336,0.25476074,0.30517578,-2.8076172,-0.91552734
106744,0.9304199,-0.29370117,0.25195312,0.4272461,-2.6855469,-0.7324219
106784,0.9281006,-0.30456543,0.25476074,-0.061035156,-3.1738281,-0.7324219
106754,0.932251,-0.29541016,0.25390625,0.4272461,-2.6855469,-0.8544922
106764,0.9324951,-0.2944336,0.25476074,0.30517578,-2.8076172,-0.91552734
106784,0.9281006,-0.30456543,0.25476074,-0.061035156,-3.1738281,-0.7324219
106804,0.9256592,-0.29907227,0.25378418,0.7324219,-3.3569336,-0.91552734
106804,0.9256592,-0.29907227,0.25378418,0.7324219,-3.3569336,-0.91552734
106814,0.92663574,-0.29675293,0.25354004,1.0986328,-3.4179688,-0.9765625
106814,0.92663574,-0.29675293,0.25354004,1.0986328,-3.4179688,-0.9765625
106824,0.92785645,-0.2927246,0.25378418,1.2207031,-3.4179688,-0.9765625
106824,0.92785645,-0.2927246,0.25378418,1.2207031,-3.4179688,-0.9765625
106834,0.9298096,-0.29052734,0.2512207,1.159668,-3.4179688,-0.9765625
106834,0.9298096,-0.29052734,0.2512207,1.159668,-3.4179688,-0.9765625
106844,0.93029785,-0.2890625,0.2475586,0.8544922,-3.479004,-0.9765625
106844,0.93029785,-0.2890625,0.2475586,0.8544922,-3.479004,-0.9765625
106854,0.93029785,-0.28930664,0.24536133,0.6713867,-3.2348633,-0.91552734
106854,0.93029785,-0.28930664,0.24536133,0.6713867,-3.2348633,-0.91552734
106864,0.92858887,-0.29187012,0.2475586,0.5493164,-2.9907227,-1.0986328
106864,0.92858887,-0.29187012,0.2475586,0.5493164,-2.9907227,-1.0986328
106874,0.9284668,-0.2947998,0.24914551,0.36621094,-2.746582,-1.159668
106874,0.9284668,-0.2947998,0.24914551,0.36621094,-2.746582,-1.159668
106884,0.92822266,-0.2998047,0.25280762,0.18310547,-2.6245117,-1.2817383
106884,0.92822266,-0.2998047,0.25280762,0.18310547,-2.6245117,-1.2817383
106894,0.92736816,-0.3031006,0.2548828,0.12207031,-2.6855469,-1.2817383
106894,0.92736816,-0.3031006,0.2548828,0.12207031,-2.6855469,-1.2817383
106904,0.92871094,-0.305542,0.25402832,0.18310547,-2.8686523,-1.2817383
106904,0.92871094,-0.305542,0.25402832,0.18310547,-2.8686523,-1.2817383
106914,0.9300537,-0.3017578,0.25183105,0.5493164,-3.1738281,-1.159668
106914,0.9300537,-0.3017578,0.25183105,0.5493164,-3.1738281,-1.159668
106924,0.93078613,-0.29675293,0.24975586,0.91552734,-3.2958984,-0.9765625
106924,0.93078613,-0.29675293,0.24975586,0.91552734,-3.2958984,-0.9765625
106944,0.93237305,-0.28930664,0.25073242,1.2207031,-2.9907227,-0.8544922
106944,0.93237305,-0.28930664,0.25073242,1.2207031,-2.9907227,-0.8544922
106964,0.9349365,-0.29333496,0.24731445,0.48828125,-2.9907227,-0.9765625
106964,0.9349365,-0.29333496,0.24731445,0.48828125,-2.9907227,-0.9765625
106974,0.93408203,-0.29516602,0.24914551,0.48828125,-2.9907227,-1.0375977
106974,0.93408203,-0.29516602,0.24914551,0.48828125,-2.9907227,-1.0375977
106984,0.9312744,-0.29638672,0.25231934,0.48828125,-2.9296875,-1.2207031
106984,0.9312744,-0.29638672,0.25231934,0.48828125,-2.9296875,-1.2207031
106994,0.9301758,-0.29370117,0.25231934,0.4272461,-2.8686523,-1.2817383
106994,0.9301758,-0.29370117,0.25231934,0.4272461,-2.8686523,-1.2817383
107004,0.9279785,-0.2952881,0.2508545,0.7324219,-3.112793,-1.0986328
107004,0.9279785,-0.2952881,0.2508545,0.7324219,-3.112793,-1.0986328
107014,0.9277344,-0.2960205,0.2487793,0.9765625,-3.1738281,-1.0375977
107014,0.9277344,-0.2960205,0.2487793,0.9765625,-3.1738281,-1.0375977
107024,0.9243164,-0.29711914,0.24414062,1.2817383,-3.1738281,-0.8544922
107024,0.9243164,-0.29711914,0.24414062,1.2817383,-3.1738281,-0.8544922
107034,0.9251709,-0.29284668,0.2434082,1.4648438,-3.112793,-0.79345703
107034,0.9251709,-0.29284668,0.2434082,1.4648438,-3.112793,-0.79345703
107044,0.92858887,-0.2923584,0.2467041,1.4038086,-2.9296875,-0.6713867
107044,0.92858887,-0.2923584,0.2467041,1.4038086,-2.9296875,-0.6713867
107054,0.9289551,-0.29785156,0.24914551,0.8544922,-2.8076172,-0.61035156
107054,0.9289551,-0.29785156,0.24914551,0.8544922,-2.8076172,-0.61035156
107064,0.9283447,-0.29504395,0.2503662,0.48828125,-2.746582,-0.79345703
107064,0.9283447,-0.29504395,0.2503662,0.48828125,-2.746582,-0.79345703
107074,0.9309082,-0.29711914,0.25097656,0.61035156,-2.9296875,-0.91552734
107074,0.9309082,-0.29711914,0.25097656,0.61035156,-2.9296875,-0.91552734
107084,0.9329834,-0.29882812,0.25195312,1.159668,-3.1738281,-0.91552734
107084,0.9329834,-0.29882812,0.25195312,1.159668,-3.1738281,-0.91552734
107094,0.9354248,-0.29577637,0.2545166,1.5869141,-3.479004,-0.91552734
107094,0.9354248,-0.29577637,0.2545166,1.5869141,-3.479004,-0.91552734
107114,0.9251709,-0.29162598,0.25097656,1.159668,-3.6621094,-0.6713867
107134,0.9265137,-0.29223633,0.24279785,0.7324219,-3.3569336,-0.5493164
107114,0.9251709,-0.29162598,0.25097656,1.159668,-3.6621094,-0.6713867
107144,0.92871094,-0.29455566,0.24365234,0.6713867,-2.9907227,-0.48828125
107134,0.9265137,-0.29223633,0.24279785,0.7324219,-3.3569336,-0.5493164
107144,0.92871094,-0.29455566,0.24365234,0.6713867,-2.9907227,-0.48828125
107154,0.9333496,-0.29736328,0.24633789,0.7324219,-2.8076172,-0.36621094
107154,0.9333496,-0.29736328,0.24633789,0.7324219,-2.8076172,-0.36621094
107164,0.9367676,-0.296875,0.24682617,0.91552734,-2.6245117,-0.4272461
107164,0.9367676,-0.296875,0.24682617,0.91552734,-2.6245117,-0.4272461
107174,0.9367676,-0.29943848,0.2503662,1.0375977,-2.5024414,-0.48828125
107174,0.9367676,-0.29943848,0.2503662,1.0375977,-2.5024414,-0.48828125
107184,0.9346924,-0.29541016,0.25024414,1.0375977,-2.6855469,-0.79345703
107184,0.9346924,-0.29541016,0.25024414,1.0375977,-2.6855469,-0.79345703
107194,0.93115234,-0.2919922,0.2475586,0.79345703,-3.0517578,-0.91552734
107194,0.93115234,-0.2919922,0.2475586,0.79345703,-3.0517578,-0.91552734
107204,0.93115234,-0.29138184,0.2446289,0.6713867,-3.3569336,-0.91552734
107204,0.93115234,-0.29138184,0.2446289,0.6713867,-3.3569336,-0.91552734
107214,0.9301758,-0.28979492,0.24353027,0.6713867,-3.112793,-1.0986328
107214,0.9301758,-0.28979492,0.24353027,0.6713867,-3.112793,-1.0986328
107224,0.9296875,-0.2927246,0.2454834,0.61035156,-2.746582,-1.2207031
107224,0.9296875,-0.2927246,0.2454834,0.61035156,-2.746582,-1.2207031
107234,0.9342041,-0.29882812,0.24438477,0.79345703,-2.5634766,-1.159668
107244,0.9382324,-0.30236816,0.24645996,1.2817383,-2.5024414,-0.9765625
107234,0.9342041,-0.29882812,0.24438477,0.79345703,-2.5634766,-1.159668
107244,0.9382324,-0.30236816,0.24645996,1.2817383,-2.5024414,-0.9765625
107254,0.94018555,-0.3034668,0.2467041,1.5869141,-2.2583008,-1.0986328
107254,0.94018555,-0.3034668,0.2467041,1.5869141,-2.2583008,-1.0986328
107274,0.93322754,-0.29223633,0.24951172,1.2817383,-1.8920898,-1.2207031
107274,0.93322754,-0.29223633,0.24951172,1.2817383,-1.8920898,-1.2207031
107294,0.9239502,-0.2878418,0.24914551,0.4272461,-2.1972656,-1.159668
107304,0.9234619,-0.28759766,0.2467041,0.12207031,-2.2583008,-0.9765625
107294,0.9239502,-0.2878418,0.24914551,0.4272461,-2.1972656,-1.159668
107314,0.92407227,-0.2878418,0.24511719,0.30517578,-2.319336,-0.91552734
107304,0.9234619,-0.28759766,0.2467041,0.12207031,-2.2583008,-0.9765625
107314,0.92407227,-0.2878418,0.24511719,0.30517578,-2.319336,-0.91552734
107324,0.92663574,-0.29162598,0.24499512,0.5493164,-2.2583008,-0.91552734
107324,0.92663574,-0.29162598,0.24499512,0.5493164,-2.2583008,-0.91552734
107334,0.9281006,-0.29553223,0.24658203,0.6713867,-2.1362305,-0.91552734
107334,0.9281006,-0.29553223,0.24658203,0.6713867,-2.1362305,-0.91552734
107344,0.9304199,-0.29736328,0.24975586,0.9765625,-2.1972656,-0.7324219
107344,0.9304199,-0.29736328,0.24975586,0.9765625,-2.1972656,-0.7324219
107354,0.93395996,-0.29907227,0.25268555,1.0986328,-2.2583008,-0.6713867
107354,0.93395996,-0.29907227,0.25268555,1.0986328,-2.2583008,-0.6713867
107364,0.9342041,-0.29626465,0.2545166,0.9765625,-2.319336,-0.8544922
107364,0.9342041,-0.29626465,0.2545166,0.9765625,-2.319336,-0.8544922
107374,0.9366455,-0.29382324,0.25402832,0.8544922,-2.319336,-1.0375977
107374,0.9366455,-0.29382324,0.25402832,0.8544922,-2.319336,-1.0375977
107384,0.9349365,-0.29296875,0.2515869,0.6713867,-2.380371,-1.0375977
107384,0.9349365,-0.29296875,0.2515869,0.6713867,-2.380371,-1.0375977
107394,0.932251,-0.29296875,0.25048828,0.7324219,-2.5024414,-0.91552734
107394,0.932251,-0.29296875,0.25048828,0.7324219,-2.5024414,-0.91552734
107404,0.93066406,-0.29418945,0.24841309,0.8544922,-2.5024414,-0.91552734
107404,0.93066406,-0.29418945,0.24841309,0.8544922,-2.5024414,-0.91552734
107414,0.9284668,-0.29418945,0.24572754,0.8544922,-2.4414062,-0.91552734
107414,0.9284668,-0.29418945,0.24572754,0.8544922,-2.4414062,-0.91552734
107424,0.9267578,-0.29370117,0.24450684,0.6713867,-2.4414062,-0.91552734
107444,0.9295654,-0.2952881,0.24768066,0.79345703,-2.1362305,-0.91552734
107424,0.9267578,-0.29370117,0.24450684,0.6713867,-2.4414062,-0.91552734
107444,0.9295654,-0.2952881,0.24768066,0.79345703,-2.1362305,-0.91552734
107454,0.9281006,-0.2956543,0.25073242,0.8544922,-1.8920898,-0.9765625
107464,0.92822266,-0.29614258,0.25256348,0.79345703,-1.953125,-0.91552734
107454,0.9281006,-0.2956543,0.25073242,0.8544922,-1.8920898,-0.9765625
107474,0.92785645,-0.29516602,0.24951172,0.7324219,-2.1972656,-1.0375977
107464,0.92822266,-0.29614258,0.25256348,0.79345703,-1.953125,-0.91552734
107484,0.9289551,-0.29467773,0.24536133,0.79345703,-2.4414062,-1.159668
107494,0.92907715,-0.29248047,0.2442627,0.7324219,-2.5634766,-1.2207031
107474,0.92785645,-0.29516602,0.24951172,0.7324219,-2.1972656,-1.0375977
107484,0.9289551,-0.29467773,0.24536133,0.79345703,-2.4414062,-1.159668
107494,0.92907715,-0.29248047,0.2442627,0.7324219,-2.5634766,-1.2207031
107504,0.92871094,-0.2915039,0.24719238,0.61035156,-2.5634766,-1.2207031
107504,0.92871094,-0.2915039,0.24719238,0.61035156,-2.5634766,-1.2207031
107514,0.92700195,-0.29248047,0.25073242,0.48828125,-2.380371,-1.2207031
107514,0.92700195,-0.29248047,0.25073242,0.48828125,-2.380371,-1.2207031
107524,0.92700195,-0.29382324,0.25598145,0.5493164,-2.319336,-1.2817383
107524,0.92700195,-0.29382324,0.25598145,0.5493164,-2.319336,-1.2817383
107534,0.928833,-0.2956543,0.25830078,0.5493164,-2.1972656,-1.4038086
107534,0.928833,-0.2956543,0.25830078,0.5493164,-2.1972656,-1.4038086
107544,0.9321289,-0.296875,0.2557373,0.61035156,-2.5024414,-1.4038086
107544,0.9321289,-0.296875,0.2557373,0.61035156,-2.5024414,-1.4038086
107554,0.93408203,-0.296875,0.2487793,0.5493164,-2.5634766,-1.2207031
107554,0.93408203,-0.296875,0.2487793,0.5493164,-2.5634766,-1.2207031
107564,0.93237305,-0.29797363,0.24682617,0.5493164,-2.5634766,-1.0986328
107574,0.92993164,-0.29675293,0.24621582,0.5493164,-2.4414062,-1.0375977
107564,0.93237305,-0.29797363,0.24682617,0.5493164,-2.5634766,-1.0986328
107584,0.9295654,-0.29260254,0.24707031,0.5493164,-2.380371,-0.91552734
107574,0.92993164,-0.29675293,0.24621582,0.5493164,-2.4414062,-1.0375977
107584,0.9295654,-0.29260254,0.24707031,0.5493164,-2.380371,-0.91552734
107604,0.91918945,-0.28796387,0.25231934,0.36621094,-2.8076172,-0.91552734
107604,0.91918945,-0.28796387,0.25231934,0.36621094,-2.8076172,-0.91552734
107624,0.92407227,-0.29077148,0.24523926,0.30517578,-3.2348633,-0.79345703
107624,0.92407227,-0.29077148,0.24523926,0.30517578,-3.2348633,-0.79345703
107634,0.9255371,-0.2932129,0.24267578,0.4272461,-3.0517578,-0.79345703
107634,0.9255371,-0.2932129,0.24267578,0.4272461,-3.0517578,-0.79345703
107644,0.92736816,-0.29345703,0.2421875,0.7324219,-2.6855469,-0.79345703
107644,0.92736816,-0.29345703,0.2421875,0.7324219,-2.6855469,-0.79345703
107654,0.92858887,-0.2906494,0.24731445,0.8544922,-2.2583008,-0.79345703
107654,0.92858887,-0.2906494,0.24731445,0.8544922,-2.2583008,-0.79345703
107664,0.93078613,-0.2902832,0.25024414,0.79345703,-2.0751953,-0.6713867
107664,0.93078613,-0.2902832,0.25024414,0.79345703,-2.0751953,-0.6713867
107674,0.9326172,-0.2890625,0.25061035,0.7324219,-2.0751953,-0.7324219
107674,0.9326172,-0.2890625,0.25061035,0.7324219,-2.0751953,-0.7324219
107684,0.9350586,-0.2894287,0.24987793,0.5493164,-2.2583008,-0.7324219
107684,0.9350586,-0.2894287,0.24987793,0.5493164,-2.2583008,-0.7324219
107694,0.9338379,-0.28955078,0.24975586,0.30517578,-2.380371,-0.79345703
107694,0.9338379,-0.28955078,0.24975586,0.30517578,-2.380371,-0.79345703
107704,0.930542,-0.2915039,0.24890137,0.061035156,-2.5634766,-0.8544922
107704,0.930542,-0.2915039,0.24890137,0.061035156,-2.5634766,-0.8544922
107714,0.92871094,-0.29406738,0.24816895,0.0,-2.6245117,-0.8544922
107714,0.92871094,-0.29406738,0.24816895,0.0,-2.6245117,-0.8544922
107724,0.9272461,-0.29406738,0.24938965,0.061035156,-2.5634766,-0.79345703
107724,0.9272461,-0.29406738,0.24938965,0.061035156,-2.5634766,-0.79345703
107734,0.9259033,-0.29638672,0.25183105,0.4272461,-2.5024414,-0.8544922
107734,0.9259033,-0.29638672,0.25183105,0.4272461,-2.5024414,-0.8544922
107744,0.9255371,-0.29956055,0.2548828,0.6713867,-2.319336,-0.79345703
107744,0.9255371,-0.29956055,0.2548828,0.6713867,-2.319336,-0.79345703
107764,0.927124,-0.29125977,0.24987793,1.3427734,-2.8076172,-0.79345703
107764,0.927124,-0.29125977,0.24987793,1.3427734,-2.8076172,-0.79345703
107784,0.9317627,-0.28527832,0.24401855,1.0986328,-3.2348633,-0.7324219
107784,0.9317627,-0.28527832,0.24401855,1.0986328,-3.2348633,-0.7324219
107794,0.93200684,-0.28552246,0.24243164,0.91552734,-3.1738281,-0.91552734
107794,0.93200684,-0.28552246,0.24243164,0.91552734,-3.1738281,-0.91552734
107804,0.9309082,-0.2869873,0.23986816,0.79345703,-2.9907227,-1.0986328
107804,0.9309082,-0.2869873,0.23986816,0.79345703,-2.9907227,-1.0986328
107814,0.9277344,-0.29052734,0.23937988,0.8544922,-2.9296875,-1.0375977
107814,0.9277344,-0.29052734,0.23937988,0.8544922,-2.9296875,-1.0375977
107824,0.9300537,-0.28955078,0.24487305,0.9765625,-2.8076172,-0.9765625
107824,0.9300537,-0.28955078,0.24487305,0.9765625,-2.8076172,-0.9765625
107834,0.9350586,-0.29003906,0.2532959,0.7324219,-2.5024414,-0.8544922
107834,0.9350586,-0.29003906,0.2532959,0.7324219,-2.5024414,-0.8544922
107844,0.9334717,-0.2939453,0.25524902,0.5493164,-2.2583008,-0.6713867
107844,0.9334717,-0.2939453,0.25524902,0.5493164,-2.2583008,-0.6713867
107854,0.9350586,-0.2919922,0.2515869,0.4272461,-2.2583008,-0.6713867
107854,0.9350586,-0.2919922,0.2515869,0.4272461,-2.2583008,-0.6713867
107864,0.93151855,-0.29248047,0.24987793,0.79345703,-2.0751953,-0.7324219
107874,0.9279785,-0.29162598,0.25427246,1.0375977,-2.0751953,-0.6713867
107884,0.9213867,-0.28723145,0.2574463,0.8544922,-2.319336,-0.61035156
107864,0.93151855,-0.29248047,0.24987793,0.79345703,-2.0751953,-0.7324219
107894,0.9169922,-0.2886963,0.25671387,0.5493164,-2.746582,-0.61035156
107874,0.9279785,-0.29162598,0.25427246,1.0375977,-2.0751953,-0.6713867
107904,0.91760254,-0.28710938,0.25256348,0.18310547,-3.2958984,-0.61035156
107914,0.9222412,-0.28430176,0.24584961,0.061035156,-3.6621094,-0.48828125
107884,0.9213867,-0.28723145,0.2574463,0.8544922,-2.319336,-0.61035156
107934,0.93566895,-0.29699707,0.24633789,-0.18310547,-2.5634766,-0.36621094
107894,0.9169922,-0.2886963,0.25671387,0.5493164,-2.746582,-0.61035156
107954,0.9354248,-0.30603027,0.25561523,0.061035156,-1.953125,-0.4272461
107904,0.91760254,-0.28710938,0.25256348,0.18310547,-3.2958984,-0.61035156
107964,0.9334717,-0.30541992,0.25561523,0.5493164,-2.1362305,-0.4272461
107974,0.9301758,-0.3026123,0.2553711,0.91552734,-2.6855469,-0.61035156
107914,0.9222412,-0.28430176,0.24584961,0.061035156,-3.6621094,-0.48828125
107984,0.9298096,-0.29748535,0.25109863,0.9765625,-3.2958984,-0.7324219
107934,0.93566895,-0.29699707,0.24633789,-0.18310547,-2.5634766,-0.36621094
107999,0.9301758,-0.29284668,0.24450684,1.0986328,-3.6010742,-0.8544922
107954,0.9354248,-0.30603027,0.25561523,0.061035156,-1.953125,-0.4272461
108018,0.9313965,-0.28527832,0.23547363,1.0375977,-2.8076172,-0.8544922
107964,0.9334717,-0.30541992,0.25561523,0.5493164,-2.1362305,-0.4272461
108038,0.9310303,-0.29260254,0.24243164,1.0986328,-1.953125,-0.61035156
107974,0.9301758,-0.3026123,0.2553711,0.91552734,-2.6855469,-0.61035156
108048,0.93151855,-0.29260254,0.24780273,1.0986328,-1.8310547,-0.79345703
108058,0.9316406,-0.2944336,0.25317383,0.8544922,-1.953125,-0.79345703
107984,0.9298096,-0.29748535,0.25109863,0.9765625,-3.2958984,-0.7324219
108068,0.93395996,-0.29248047,0.2553711,0.5493164,-2.1972656,-0.8544922
107999,0.9301758,-0.29284668,0.24450684,1.0986328,-3.6010742,-0.8544922
108018,0.9313965,-0.28527832,0.23547363,1.0375977,-2.8076172,-0.8544922
108078,0.9317627,-0.29052734,0.25805664,0.12207031,-2.2583008,-0.91552734
108038,0.9310303,-0.29260254,0.24243164,1.0986328,-1.953125,-0.61035156
108088,0.93151855,-0.2944336,0.25793457,-0.12207031,-2.4414062,-0.9765625
108048,0.93151855,-0.29260254,0.24780273,1.0986328,-1.8310547,-0.79345703
108098,0.9310303,-0.2932129,0.25439453,-0.12207031,-2.5024414,-0.91552734
108058,0.9316406,-0.2944336,0.25317383,0.8544922,-1.953125,-0.79345703
108068,0.93395996,-0.29248047,0.2553711,0.5493164,-2.1972656,-0.8544922
108078,0.9317627,-0.29052734,0.25805664,0.12207031,-2.2583008,-0.91552734
108088,0.93151855,-0.2944336,0.25793457,-0.12207031,-2.4414062,-0.9765625
108098,0.9310303,-0.2932129,0.25439453,-0.12207031,-2.5024414,-0.91552734
108108,0.93078613,-0.29589844,0.25280762,0.30517578,-2.5024414,-0.8544922
108108,0.93078613,-0.29589844,0.25280762,0.30517578,-2.5024414,-0.8544922
108118,0.92907715,-0.29516602,0.24914551,0.79345703,-2.319336,-0.91552734
108128,0.9272461,-0.2927246,0.24926758,1.0375977,-2.1362305,-1.0986328
108138,0.9277344,-0.2886963,0.24902344,0.91552734,-2.2583008,-0.91552734
108118,0.92907715,-0.29516602,0.24914551,0.79345703,-2.319336,-0.91552734
108128,0.9272461,-0.2927246,0.24926758,1.0375977,-2.1362305,-1.0986328
108138,0.9277344,-0.2886963,0.24902344,0.91552734,-2.2583008,-0.91552734
108148,0.92700195,-0.2866211,0.2479248,0.61035156,-2.4414062,-0.7324219
108148,0.92700195,-0.2866211,0.2479248,0.61035156,-2.4414062,-0.7324219
108158,0.9276123,-0.28759766,0.24987793,0.12207031,-2.5024414,-0.6713867
108158,0.9276123,-0.28759766,0.24987793,0.12207031,-2.5024414,-0.6713867
108168,0.9295654,-0.28979492,0.2503662,-0.24414062,-2.380371,-0.7324219
108168,0.9295654,-0.28979492,0.2503662,-0.24414062,-2.380371,-0.7324219
108178,0.930542,-0.2915039,0.25024414,0.061035156,-2.4414062,-0.7324219
108178,0.930542,-0.2915039,0.25024414,0.061035156,-2.4414062,-0.7324219
108198,0.928833,-0.29638672,0.25256348,0.79345703,-2.4414062,-0.7324219
108198,0.928833,-0.29638672,0.25256348,0.79345703,-2.4414062,-0.7324219
108218,0.9283447,-0.29821777,0.24987793,0.6713867,-2.6245117,-0.7324219
108218,0.9283447,-0.29821777,0.24987793,0.6713867,-2.6245117,-0.7324219
108228,0.9272461,-0.2939453,0.24719238,0.6713867,-2.8076172,-0.7324219
108228,0.9272461,-0.2939453,0.24719238,0.6713867,-2.8076172,-0.7324219
108238,0.92858887,-0.289917,0.24536133,0.61035156,-2.746582,-0.8544922
108238,0.92858887,-0.289917,0.24536133,0.61035156,-2.746582,-0.8544922
108248,0.9284668,-0.28710938,0.24499512,0.4272461,-2.5634766,-0.79345703
108248,0.9284668,-0.28710938,0.24499512,0.4272461,-2.5634766,-0.79345703
108258,0.92871094,-0.2866211,0.24938965,0.30517578,-2.380371,-0.6713867
108258,0.92871094,-0.2866211,0.24938965,0.30517578,-2.380371,-0.6713867
108268,0.9284668,-0.2878418,0.25183105,0.30517578,-2.1972656,-0.6713867
108268,0.9284668,-0.2878418,0.25183105,0.30517578,-2.1972656,-0.6713867
108278,0.93078613,-0.28930664,0.2536621,0.24414062,-2.1362305,-0.61035156
108278,0.93078613,-0.28930664,0.2536621,0.24414062,-2.1362305,-0.61035156
108288,0.93029785,-0.29089355,0.25341797,0.36621094,-2.2583008,-0.6713867
108288,0.93029785,-0.29089355,0.25341797,0.36621094,-2.2583008,-0.6713867
108298,0.93151855,-0.2927246,0.2536621,0.4272461,-2.319336,-0.6713867
108298,0.93151855,-0.2927246,0.2536621,0.4272461,-2.319336,-0.6713867
108308,0.93444824,-0.2939453,0.2515869,0.48828125,-2.2583008,-0.7324219
108308,0.93444824,-0.2939453,0.2515869,0.48828125,-2.2583008,-0.7324219
108318,0.93310547,-0.2952881,0.2515869,0.48828125,-2.1972656,-0.7324219
108318,0.93310547,-0.2952881,0.2515869,0.48828125,-2.1972656,-0.7324219
108328,0.9298096,-0.29467773,0.24951172,0.48828125,-2.0141602,-0.8544922
108328,0.9298096,-0.29467773,0.24951172,0.48828125,-2.0141602,-0.8544922
108338,0.9276123,-0.29309082,0.25134277,0.5493164,-1.953125,-0.9765625
108338,0.9276123,-0.29309082,0.25134277,0.5493164,-1.953125,-0.9765625
108358,0.9234619,-0.28845215,0.25549316,0.6713867,-2.4414062,-1.159668
108358,0.9234619,-0.28845215,0.25549316,0.6713867,-2.4414062,-1.159668
108378,0.93395996,-0.29284668,0.25109863,0.61035156,-3.1738281,-0.9765625
108378,0.93395996,-0.29284668,0.25109863,0.61035156,-3.1738281,-0.9765625
108388,0.9359131,-0.29284668,0.24645996,0.61035156,-3.3569336,-0.79345703
108388,0.9359131,-0.29284668,0.24645996,0.61035156,-3.3569336,-0.79345703
108398,0.9350586,-0.29162598,0.2446289,0.4272461,-3.0517578,-0.91552734
108398,0.9350586,-0.29162598,0.2446289,0.4272461,-3.0517578,-0.91552734
108408,0.9326172,-0.2923584,0.24609375,0.30517578,-2.5024414,-0.9765625
108408,0.9326172,-0.2923584,0.24609375,0.30517578,-2.5024414,-0.9765625
108418,0.93200684,-0.29284668,0.24853516,0.24414062,-2.2583008,-0.9765625
108418,0.93200684,-0.29284668,0.24853516,0.24414062,-2.2583008,-0.9765625
108428,0.9312744,-0.29309082,0.25170898,0.30517578,-2.1972656,-0.9765625
108428,0.9312744,-0.29309082,0.25170898,0.30517578,-2.1972656,-0.9765625
108438,0.92993164,-0.29248047,0.25439453,0.30517578,-2.380371,-0.9765625
108438,0.92993164,-0.29248047,0.25439453,0.30517578,-2.380371,-0.9765625
108448,0.9310303,-0.2927246,0.25305176,0.30517578,-2.6855469,-0.91552734
108448,0.9310303,-0.2927246,0.25305176,0.30517578,-2.6855469,-0.91552734
108458,0.928833,-0.2932129,0.25268555,0.24414062,-3.0517578,-0.8544922
108458,0.928833,-0.2932129,0.25268555,0.24414062,-3.0517578,-0.8544922
108468,0.9272461,-0.29138184,0.25073242,0.24414062,-3.2348633,-0.7324219
108468,0.9272461,-0.29138184,0.25073242,0.24414062,-3.2348633,-0.7324219
108478,0.9250488,-0.29125977,0.24926758,0.30517578,-3.2348633,-0.7324219
108478,0.9250488,-0.29125977,0.24926758,0.30517578,-3.2348633,-0.7324219
108488,0.92736816,-0.29040527,0.24633789,0.12207031,-2.9907227,-0.8544922
108488,0.92736816,-0.29040527,0.24633789,0.12207031,-2.9907227,-0.8544922
108498,0.9283447,-0.289917,0.2467041,0.061035156,-2.746582,-0.8544922
108498,0.9283447,-0.289917,0.2467041,0.061035156,-2.746582,-0.8544922
108508,0.92944336,-0.2911377,0.24523926,0.12207031,-2.1362305,-0.8544922
108508,0.92944336,-0.2911377,0.24523926,0.12207031,-2.1362305,-0.8544922
108528,0.93066406,-0.29211426,0.25708008,0.30517578,-2.1362305,-1.0375977
108528,0.93066406,-0.29211426,0.25708008,0.30517578,-2.1362305,-1.0375977
108538,0.93115234,-0.29101562,0.25732422,0.36621094,-2.380371,-1.0986328
108538,0.93115234,-0.29101562,0.25732422,0.36621094,-2.380371,-1.0986328
108548,0.932251,-0.29248047,0.25500488,0.30517578,-2.6855469,-1.0375977
108548,0.932251,-0.29248047,0.25500488,0.30517578,-2.6855469,-1.0375977
108558,0.93115234,-0.2915039,0.25048828,0.18310547,-2.9907227,-0.9765625
108568,0.9313965,-0.29101562,0.24768066,0.061035156,-3.112793,-1.0986328
108558,0.93115234,-0.2915039,0.25048828,0.18310547,-2.9907227,-0.9765625
108578,0.9337158,-0.29162598,0.24584961,0.0,-3.0517578,-1.0375977
108568,0.9313965,-0.29101562,0.24768066,0.061035156,-3.112793,-1.0986328
108588,0.9338379,-0.29541016,0.24414062,0.12207031,-2.8076172,-0.9765625
108578,0.9337158,-0.29162598,0.24584961,0.0,-3.0517578,-1.0375977
108598,0.9328613,-0.29418945,0.24230957,0.4272461,-2.6855469,-0.7324219
108588,0.9338379,-0.29541016,0.24414062,0.12207031,-2.8076172,-0.9765625
108608,0.93359375,-0.28723145,0.24780273,0.5493164,-2.319336,-0.7324219
108618,0.93273926,-0.28759766,0.25561523,0.30517578,-2.1362305,-0.79345703
108598,0.9328613,-0.29418945,0.24230957,0.4272461,-2.6855469,-0.7324219
108628,0.92822266,-0.28796387,0.25634766,-0.061035156,-2.1972656,-0.6713867
108608,0.93359375,-0.28723145,0.24780273,0.5493164,-2.319336,-0.7324219
108638,0.9284668,-0.28759766,0.25183105,-0.061035156,-2.5634766,-0.6713867
108618,0.93273926,-0.28759766,0.25561523,0.30517578,-2.1362305,-0.79345703
108648,0.927124,-0.2927246,0.24536133,0.24414062,-2.8076172,-0.7324219
108628,0.92822266,-0.28796387,0.25634766,-0.061035156,-2.1972656,-0.6713867
108658,0.9272461,-0.29589844,0.24645996,0.61035156,-2.8076172,-0.91552734
108638,0.9284668,-0.28759766,0.25183105,-0.061035156,-2.5634766,-0.6713867
108668,0.9267578,-0.2960205,0.25048828,0.79345703,-2.8686523,-1.0375977
108648,0.927124,-0.2927246,0.24536133,0.24414062,-2.8076172,-0.7324219
108688,0.92785645,-0.2923584,0.25378418,0.30517578,-3.0517578,-0.8544922
108658,0.9272461,-0.29589844,0.24645996,0.61035156,-2.8076172,-0.91552734
108668,0.9267578,-0.2960205,0.25048828,0.79345703,-2.8686523,-1.0375977
108688,0.92785645,-0.2923584,0.25378418,0.30517578,-3.0517578,-0.8544922
108708,0.9350586,-0.29467773,0.25476074,0.12207031,-2.9296875,-0.7324219
108708,0.9350586,-0.29467773,0.25476074,0.12207031,-2.9296875,-0.7324219
108718,0.93725586,-0.29406738,0.2545166,0.18310547,-2.746582,-0.6713867
108728,0.93725586,-0.29541016,0.25439453,0.18310547,-2.6855469,-0.5493164
108718,0.93725586,-0.29406738,0.2545166,0.18310547,-2.746582,-0.6713867
108738,0.9355469,-0.2972412,0.2515869,0.4272461,-2.6855469,-0.48828125
108728,0.93725586,-0.29541016,0.25439453,0.18310547,-2.6855469,-0.5493164
108738,0.9355469,-0.2972412,0.2515869,0.4272461,-2.6855469,-0.48828125
108748,0.93237305,-0.29504395,0.24926758,0.79345703,-2.746582,-0.5493164
108748,0.93237305,-0.29504395,0.24926758,0.79345703,-2.746582,-0.5493164
108758,0.9293213,-0.2894287,0.24694824,0.91552734,-2.8686523,-0.7324219
108758,0.9293213,-0.2894287,0.24694824,0.91552734,-2.8686523,-0.7324219
108768,0.9293213,-0.2878418,0.24658203,0.7324219,-2.9907227,-0.7324219
108768,0.9293213,-0.2878418,0.24658203,0.7324219,-2.9907227,-0.7324219
108778,0.9279785,-0.2890625,0.24499512,0.5493164,-2.9907227,-0.7324219
108778,0.9279785,-0.2890625,0.24499512,0.5493164,-2.9907227,-0.7324219
108788,0.9310303,-0.2894287,0.24560547,0.36621094,-2.9296875,-0.8544922
108788,0.9310303,-0.2894287,0.24560547,0.36621094,-2.9296875,-0.8544922
108798,0.93273926,-0.2894287,0.24414062,0.30517578,-2.9296875,-0.91552734
108798,0.93273926,-0.2894287,0.24414062,0.30517578,-2.9296875,-0.91552734
108808,0.93322754,-0.29309082,0.24267578,0.30517578,-2.8076172,-0.6713867
108808,0.93322754,-0.29309082,0.24267578,0.30517578,-2.8076172,-0.6713867
108818,0.93322754,-0.29455566,0.2446289,0.36621094,-2.4414062,-0.7324219
108818,0.93322754,-0.29455566,0.2446289,0.36621094,-2.4414062,-0.7324219
108828,0.9317627,-0.29382324,0.2467041,0.48828125,-2.0751953,-0.8544922
108828,0.9317627,-0.29382324,0.2467041,0.48828125,-2.0751953,-0.8544922
108848,0.92614746,-0.29052734,0.2553711,0.8544922,-2.2583008,-0.91552734
108868,0.9316406,-0.2902832,0.25512695,0.61035156,-2.9907227,-0.79345703
108848,0.92614746,-0.29052734,0.2553711,0.8544922,-2.2583008,-0.91552734
108878,0.9345703,-0.29016113,0.24853516,0.48828125,-3.2348633,-0.79345703
108868,0.9316406,-0.2902832,0.25512695,0.61035156,-2.9907227,-0.79345703
108888,0.9371338,-0.29223633,0.24633789,0.6713867,-3.2348633,-0.61035156
108878,0.9345703,-0.29016113,0.24853516,0.48828125,-3.2348633,-0.79345703
108888,0.9371338,-0.29223633,0.24633789,0.6713867,-3.2348633,-0.61035156
108898,0.93774414,-0.29541016,0.24499512,0.6713867,-2.8686523,-0.48828125
108898,0.93774414,-0.29541016,0.24499512,0.6713867,-2.8686523,-0.48828125
108908,0.93652344,-0.29711914,0.2446289,0.48828125,-2.4414062,-0.5493164
108918,0.9338379,-0.29504395,0.2479248,0.4272461,-1.953125,-0.48828125
108908,0.93652344,-0.29711914,0.2446289,0.48828125,-2.4414062,-0.5493164
108928,0.9321289,-0.29296875,0.24768066,0.61035156,-1.7700195,-0.4272461
108918,0.9338379,-0.29504395,0.2479248,0.4272461,-1.953125,-0.48828125
108938,0.9295654,-0.29370117,0.24963379,0.7324219,-1.6479492,-0.36621094
108928,0.9321289,-0.29296875,0.24768066,0.61035156,-1.7700195,-0.4272461
108948,0.9256592,-0.29052734,0.25183105,0.7324219,-1.7700195,-0.5493164
108938,0.9295654,-0.29370117,0.24963379,0.7324219,-1.6479492,-0.36621094
108948,0.9256592,-0.29052734,0.25183105,0.7324219,-1.7700195,-0.5493164
108958,0.92285156,-0.2878418,0.25109863,0.7324219,-1.8310547,-0.5493164
108968,0.9223633,-0.29125977,0.24890137,0.7324219,-2.2583008,-0.48828125
108958,0.92285156,-0.2878418,0.25109863,0.7324219,-1.8310547,-0.5493164
108978,0.9211426,-0.29174805,0.24890137,0.79345703,-2.5024414,-0.4272461
108968,0.9223633,-0.29125977,0.24890137,0.7324219,-2.2583008,-0.48828125
108988,0.92333984,-0.29333496,0.25073242,0.8544922,-2.6245117,-0.48828125
108978,0.9211426,-0.29174805,0.24890137,0.79345703,-2.5024414,-0.4272461
108988,0.92333984,-0.29333496,0.25073242,0.8544922,-2.6245117,-0.48828125
108998,0.92492676,-0.2960205,0.2529297,0.7324219,-2.6855469,-0.6713867
108998,0.92492676,-0.2960205,0.2529297,0.7324219,-2.6855469,-0.6713867
109018,0.9373779,-0.29418945,0.2520752,0.48828125,-2.746582,-0.5493164
109018,0.9373779,-0.29418945,0.2520752,0.48828125,-2.746582,-0.5493164
109038,0.93237305,-0.2927246,0.24633789,0.18310547,-2.8686523,-0.5493164
109038,0.93237305,-0.2927246,0.24633789,0.18310547,-2.8686523,-0.5493164
109048,0.930542,-0.2919922,0.2446289,0.061035156,-2.8076172,-0.5493164
109048,0.930542,-0.2919922,0.2446289,0.061035156,-2.8076172,-0.5493164
109058,0.9263916,-0.29211426,0.24499512,0.12207031,-2.6855469,-0.61035156
109058,0.9263916,-0.29211426,0.24499512,0.12207031,-2.6855469,-0.61035156
109068,0.92578125,-0.2906494,0.24694824,0.24414062,-2.4414062,-0.7324219
109068,0.92578125,-0.2906494,0.24694824,0.24414062,-2.4414062,-0.7324219
109078,0.9279785,-0.29174805,0.24853516,0.4272461,-2.5634766,-0.61035156
109078,0.9279785,-0.29174805,0.24853516,0.4272461,-2.5634766,-0.61035156
109088,0.92858887,-0.2935791,0.25048828,0.48828125,-2.6855469,-0.4272461
109088,0.92858887,-0.2935791,0.25048828,0.48828125,-2.6855469,-0.4272461
109098,0.92907715,-0.29260254,0.24951172,0.4272461,-2.8076172,-0.4272461
109098,0.92907715,-0.29260254,0.24951172,0.4272461,-2.8076172,-0.4272461
109108,0.9277344,-0.29284668,0.24816895,0.30517578,-2.8686523,-0.4272461
109108,0.9277344,-0.29284668,0.24816895,0.30517578,-2.8686523,-0.4272461
109118,0.92822266,-0.2915039,0.24975586,0.18310547,-2.5634766,-0.5493164
109118,0.92822266,-0.2915039,0.24975586,0.18310547,-2.5634766,-0.5493164
109128,0.9276123,-0.29187012,0.25048828,0.0,-2.380371,-0.79345703
109128,0.9276123,-0.29187012,0.25048828,0.0,-2.380371,-0.79345703
109138,0.9300537,-0.29138184,0.25219727,0.0,-2.5634766,-0.79345703
109138,0.9300537,-0.29138184,0.25219727,0.0,-2.5634766,-0.79345703
109148,0.93029785,-0.29187012,0.2512207,0.0,-2.5634766,-0.79345703
109148,0.93029785,-0.29187012,0.2512207,0.0,-2.5634766,-0.79345703
109158,0.93237305,-0.29492188,0.25024414,0.18310547,-2.6245117,-0.7324219
109158,0.93237305,-0.29492188,0.25024414,0.18310547,-2.6245117,-0.7324219
109178,0.9277344,-0.29284668,0.2515869,0.18310547,-2.8076172,-0.8544922
109178,0.9277344,-0.29284668,0.2515869,0.18310547,-2.8076172,-0.8544922
109198,0.92663574,-0.29504395,0.24389648,0.36621094,-3.0517578,-0.61035156
109198,0.92663574,-0.29504395,0.24389648,0.36621094,-3.0517578,-0.61035156
109208,0.9293213,-0.289917,0.24511719,0.30517578,-3.0517578,-0.6713867
109208,0.9293213,-0.289917,0.24511719,0.30517578,-3.0517578,-0.6713867
109218,0.92944336,-0.29052734,0.24560547,0.24414062,-2.8076172,-0.7324219
109218,0.92944336,-0.29052734,0.24560547,0.24414062,-2.8076172,-0.7324219
109228,0.9338379,-0.29370117,0.24450684,0.18310547,-2.746582,-0.61035156
109228,0.9338379,-0.29370117,0.24450684,0.18310547,-2.746582,-0.61035156
109238,0.93530273,-0.29821777,0.24523926,0.18310547,-2.8076172,-0.5493164
109238,0.93530273,-0.29821777,0.24523926,0.18310547,-2.8076172,-0.5493164
109248,0.93444824,-0.29541016,0.24975586,0.12207031,-2.6855469,-0.7324219
109248,0.93444824,-0.29541016,0.24975586,0.12207031,-2.6855469,-0.7324219
109258,0.93273926,-0.2919922,0.2515869,0.24414062,-2.5024414,-1.0375977
109268,0.93078613,-0.29089355,0.2503662,0.18310547,-2.6855469,-0.9765625
109258,0.93273926,-0.2919922,0.2515869,0.24414062,-2.5024414,-1.0375977
109278,0.9295654,-0.29101562,0.24768066,0.24414062,-2.746582,-0.8544922
109268,0.93078613,-0.29089355,0.2503662,0.18310547,-2.6855469,-0.9765625
109288,0.93078613,-0.2944336,0.2442627,0.30517578,-2.746582,-0.79345703
109278,0.9295654,-0.29101562,0.24768066,0.24414062,-2.746582,-0.8544922
109288,0.93078613,-0.2944336,0.2442627,0.30517578,-2.746582,-0.79345703
109298,0.92785645,-0.29638672,0.24487305,0.48828125,-2.6855469,-0.5493164
109308,0.927124,-0.29553223,0.24865723,0.4272461,-2.5024414,-0.61035156
109298,0.92785645,-0.29638672,0.24487305,0.48828125,-2.6855469,-0.5493164
109318,0.9248047,-0.2952881,0.25109863,0.48828125,-2.5024414,-0.7324219
109308,0.927124,-0.29553223,0.24865723,0.4272461,-2.5024414,-0.61035156
109328,0.92736816,-0.29589844,0.25146484,0.36621094,-2.746582,-0.91552734
109318,0.9248047,-0.2952881,0.25109863,0.48828125,-2.5024414,-0.7324219
109328,0.92736816,-0.29589844,0.25146484,0.36621094,-2.746582,-0.91552734
109348,0.9334717,-0.29382324,0.24182129,0.12207031,-2.9907227,-0.91552734
109348,0.9334717,-0.29382324,0.24182129,0.12207031,-2.9907227,-0.91552734
109358,0.9310303,-0.29614258,0.23339844,0.30517578,-2.9296875,-0.8544922
109358,0.9310303,-0.29614258,0.23339844,0.30517578,-2.9296875,-0.8544922
109368,0.9301758,-0.29467773,0.23620605,0.6713867,-2.8076172,-0.7324219
109368,0.9301758,-0.29467773,0.23620605,0.6713867,-2.8076172,-0.7324219
109378,0.92822266,-0.2894287,0.24511719,0.6713867,-2.319336,-0.79345703
109378,0.92822266,-0.2894287,0.24511719,0.6713867,-2.319336,-0.79345703
109388,0.92626953,-0.29223633,0.25463867,0.36621094,-2.0141602,-0.79345703
109388,0.92626953,-0.29223633,0.25463867,0.36621094,-2.0141602,-0.79345703
109398,0.9239502,-0.28881836,0.2548828,0.36621094,-2.2583008,-0.79345703
109398,0.9239502,-0.28881836,0.2548828,0.36621094,-2.2583008,-0.79345703
109408,0.9243164,-0.29284668,0.2512207,0.79345703,-2.6245117,-0.6713867
109408,0.9243164,-0.29284668,0.2512207,0.79345703,-2.6245117,-0.6713867
109418,0.9276123,-0.29882812,0.25061035,1.2207031,-2.9296875,-0.6713867
109418,0.9276123,-0.29882812,0.25061035,1.2207031,-2.9296875,-0.6713867
109428,0.9296875,-0.29907227,0.25146484,1.6479492,-3.1738281,-0.6713867
109438,0.92785645,-0.29333496,0.24975586,1.3427734,-3.4179688,-0.79345703
109428,0.9296875,-0.29907227,0.25146484,1.6479492,-3.1738281,-0.6713867
109448,0.9293213,-0.28894043,0.24401855,0.6713867,-3.479004,-0.8544922
109438,0.92785645,-0.29333496,0.24975586,1.3427734,-3.4179688,-0.79345703
109458,0.9343262,-0.28894043,0.2409668,0.30517578,-3.6010742,-0.6713867
109448,0.9293213,-0.28894043,0.24401855,0.6713867,-3.479004,-0.8544922
109468,0.9342041,-0.28674316,0.24108887,0.0,-3.4179688,-0.4272461
109478,0.93408203,-0.2915039,0.24536133,-0.18310547,-2.9907227,-0.36621094
109458,0.9343262,-0.28894043,0.2409668,0.30517578,-3.6010742,-0.6713867
109468,0.9342041,-0.28674316,0.24108887,0.0,-3.4179688,-0.4272461
109478,0.93408203,-0.2915039,0.24536133,-0.18310547,-2.9907227,-0.36621094
109488,0.93359375,-0.29919434,0.2520752,0.0,-2.5024414,-0.4272461
109508,0.9313965,-0.29956055,0.2541504,1.4648438,-2.9907227,-0.8544922
109488,0.93359375,-0.29919434,0.2520752,0.0,-2.5024414,-0.4272461
109508,0.9313965,-0.29956055,0.2541504,1.4648438,-2.9907227,-0.8544922
109528,0.9354248,-0.2886963,0.2442627,1.3427734,-3.6621094,-1.0375977
109528,0.9354248,-0.2886963,0.2442627,1.3427734,-3.6621094,-1.0375977
109538,0.9373779,-0.2861328,0.23706055,0.91552734,-3.6621094,-1.159668
109538,0.9373779,-0.2861328,0.23706055,0.91552734,-3.6621094,-1.159668
109548,0.9387207,-0.29052734,0.23339844,0.61035156,-3.6010742,-1.0986328
109548,0.9387207,-0.29052734,0.23339844,0.61035156,-3.6010742,-1.0986328
109558,0.9373779,-0.2952881,0.2364502,0.6713867,-3.2348633,-1.159668
109558,0.9373779,-0.2952881,0.2364502,0.6713867,-3.2348633,-1.159668
109568,0.9333496,-0.29760742,0.24145508,0.79345703,-2.746582,-1.4038086
109568,0.9333496,-0.29760742,0.24145508,0.79345703,-2.746582,-1.4038086
109578,0.92822266,-0.29760742,0.24731445,1.2207031,-2.4414062,-1.5258789
109578,0.92822266,-0.29760742,0.24731445,1.2207031,-2.4414062,-1.5258789
109588,0.9277344,-0.29699707,0.25195312,1.4648438,-2.5634766,-1.4648438
109598,0.9291992,-0.29553223,0.2545166,1.7700195,-2.746582,-1.3427734
109588,0.9277344,-0.29699707,0.25195312,1.4648438,-2.5634766,-1.4648438
109598,0.9291992,-0.29553223,0.2545166,1.7700195,-2.746582,-1.3427734
109608,0.9279785,-0.29614258,0.25256348,1.8310547,-2.9296875,-1.2817383
109618,0.92822266,-0.29541016,0.2479248,1.5869141,-2.8686523,-1.2207031
109608,0.9279785,-0.29614258,0.25256348,1.8310547,-2.9296875,-1.2817383
109628,0.93078613,-0.29467773,0.24157715,1.2817383,-2.8076172,-1.159668
109618,0.92822266,-0.29541016,0.2479248,1.5869141,-2.8686523,-1.2207031
109638,0.93322754,-0.2956543,0.24145508,0.9765625,-2.6245117,-1.0986328
109628,0.93078613,-0.29467773,0.24157715,1.2817383,-2.8076172,-1.159668
109638,0.93322754,-0.2956543,0.24145508,0.9765625,-2.6245117,-1.0986328
109648,0.9312744,-0.2927246,0.24145508,0.7324219,-2.4414062,-1.0986328
109648,0.9312744,-0.2927246,0.24145508,0.7324219,-2.4414062,-1.0986328
109668,0.9296875,-0.2927246,0.25402832,0.79345703,-2.4414062,-1.2817383
109668,0.9296875,-0.2927246,0.25402832,0.79345703,-2.4414062,-1.2817383
109688,0.92944336,-0.29003906,0.25256348,0.91552734,-3.1738281,-1.2817383
109688,0.92944336,-0.29003906,0.25256348,0.91552734,-3.1738281,-1.2817383
109698,0.9293213,-0.28918457,0.24780273,1.159668,-3.479004,-1.2817383
109698,0.9293213,-0.28918457,0.24780273,1.159668,-3.479004,-1.2817383
109708,0.93188477,-0.2874756,0.24743652,1.2817383,-3.4179688,-1.2817383
109708,0.93188477,-0.2874756,0.24743652,1.2817383,-3.4179688,-1.2817383
109718,0.93273926,-0.28955078,0.24707031,1.159668,-3.2348633,-1.2207031
109728,0.93310547,-0.29174805,0.24572754,0.91552734,-3.1738281,-1.0986328
109718,0.93273926,-0.28955078,0.24707031,1.159668,-3.2348633,-1.2207031
109738,0.93273926,-0.29577637,0.24450684,0.5493164,-2.9907227,-0.9765625
109728,0.93310547,-0.29174805,0.24572754,0.91552734,-3.1738281,-1.0986328
109738,0.93273926,-0.29577637,0.24450684,0.5493164,-2.9907227,-0.9765625
109748,0.9329834,-0.29748535,0.23986816,0.48828125,-2.8686523,-0.91552734
109748,0.9329834,-0.29748535,0.23986816,0.48828125,-2.8686523,-0.91552734
109758,0.9312744,-0.29382324,0.24304199,0.61035156,-2.5024414,-0.8544922
109758,0.9312744,-0.29382324,0.24304199,0.61035156,-2.5024414,-0.8544922
109768,0.92871094,-0.29187012,0.2487793,0.6713867,-2.2583008,-0.9765625
109768,0.92871094,-0.29187012,0.2487793,0.6713867,-2.2583008,-0.9765625
109778,0.9304199,-0.29333496,0.24902344,0.8544922,-2.380371,-0.91552734
109788,0.932251,-0.2927246,0.24768066,1.0986328,-2.746582,-0.91552734
109778,0.9304199,-0.29333496,0.24902344,0.8544922,-2.380371,-0.91552734
109788,0.932251,-0.2927246,0.24768066,1.0986328,-2.746582,-0.91552734
109798,0.9338379,-0.29187012,0.24389648,1.2207031,-2.9296875,-0.9765625
109798,0.9338379,-0.29187012,0.24389648,1.2207031,-2.9296875,-0.9765625
109808,0.93481445,-0.29003906,0.24328613,1.2207031,-2.9907227,-0.9765625
109808,0.93481445,-0.29003906,0.24328613,1.2207031,-2.9907227,-0.9765625
109818,0.9346924,-0.2890625,0.2434082,1.159668,-2.746582,-0.91552734
109818,0.9346924,-0.2890625,0.2434082,1.159668,-2.746582,-0.91552734
109838,0.93408203,-0.2935791,0.24389648,0.7324219,-2.2583008,-0.9765625
109838,0.93408203,-0.2935791,0.24389648,0.7324219,-2.2583008,-0.9765625
109858,0.9283447,-0.29125977,0.2524414,0.7324219,-1.8920898,-1.0986328
109868,0.9265137,-0.28930664,0.25280762,0.6713867,-2.1972656,-1.0986328
109858,0.9283447,-0.29125977,0.2524414,0.7324219,-1.8920898,-1.0986328
109868,0.9265137,-0.28930664,0.25280762,0.6713867,-2.1972656,-1.0986328
109878,0.9246826,-0.28857422,0.25256348,0.6713867,-2.4414062,-1.0375977
109888,0.92663574,-0.28735352,0.25183105,0.8544922,-2.6855469,-1.0986328
109878,0.9246826,-0.28857422,0.25256348,0.6713867,-2.4414062,-1.0375977
109888,0.92663574,-0.28735352,0.25183105,0.8544922,-2.6855469,-1.0986328
109898,0.9296875,-0.28710938,0.24804688,0.79345703,-2.8076172,-0.9765625
109898,0.9296875,-0.28710938,0.24804688,0.79345703,-2.8076172,-0.9765625
109908,0.93115234,-0.2911377,0.24511719,0.61035156,-2.8686523,-1.0375977
109908,0.93115234,-0.2911377,0.24511719,0.61035156,-2.8686523,-1.0375977
109918,0.9321289,-0.29248047,0.24633789,0.48828125,-2.8076172,-1.0375977
109918,0.9321289,-0.29248047,0.24633789,0.48828125,-2.8076172,-1.0375977
109928,0.93188477,-0.29296875,0.2442627,0.4272461,-2.6855469,-1.0375977
109928,0.93188477,-0.29296875,0.2442627,0.4272461,-2.6855469,-1.0375977
109938,0.9329834,-0.29125977,0.24206543,0.4272461,-2.6245117,-1.159668
109938,0.9329834,-0.29125977,0.24206543,0.4272461,-2.6245117,-1.159668
109948,0.93237305,-0.28759766,0.24829102,0.48828125,-2.4414062,-1.2207031
109948,0.93237305,-0.28759766,0.24829102,0.48828125,-2.4414062,-1.2207031
109958,0.9259033,-0.289917,0.25585938,0.61035156,-2.4414062,-1.2207031
109958,0.9259033,-0.289917,0.25585938,0.61035156,-2.4414062,-1.2207031
109968,0.9268799,-0.29162598,0.25634766,0.8544922,-2.9296875,-1.0986328
109968,0.9268799,-0.29162598,0.25634766,0.8544922,-2.9296875,-1.0986328
109978,0.9251709,-0.2886963,0.25097656,1.159668,-3.6010742,-0.9765625
109978,0.9251709,-0.2886963,0.25097656,1.159668,-3.6010742,-0.9765625
109998,0.9255371,-0.28405762,0.23742676,1.0375977,-3.3569336,-0.8544922
109998,0.9255371,-0.28405762,0.23742676,1.0375977,-3.3569336,-0.8544922
110018,0.93395996,-0.2841797,0.24621582,0.30517578,-2.746582,-0.5493164
110018,0.93395996,-0.2841797,0.24621582,0.30517578,-2.746582,-0.5493164
110028,0.93444824,-0.28588867,0.24987793,-0.30517578,-2.5634766,-0.5493164
110028,0.93444824,-0.28588867,0.24987793,-0.30517578,-2.5634766,-0.5493164
110038,0.9349365,-0.28686523,0.25219727,-0.79345703,-2.5634766,-0.5493164
110038,0.9349365,-0.28686523,0.25219727,-0.79345703,-2.5634766,-0.5493164
110048,0.93359375,-0.2902832,0.25439453,-0.91552734,-2.6245117,-0.5493164
110048,0.93359375,-0.2902832,0.25439453,-0.91552734,-2.6245117,-0.5493164
110058,0.9333496,-0.29260254,0.2545166,-0.61035156,-2.8686523,-0.48828125
110068,0.9329834,-0.29016113,0.25341797,-0.12207031,-3.112793,-0.4272461
110058,0.9333496,-0.29260254,0.2545166,-0.61035156,-2.8686523,-0.48828125
110078,0.93066406,-0.28649902,0.25109863,0.30517578,-3.3569336,-0.5493164
110068,0.9329834,-0.29016113,0.25341797,-0.12207031,-3.112793,-0.4272461
110088,0.93359375,-0.2841797,0.24707031,0.30517578,-3.479004,-0.61035156
110078,0.93066406,-0.28649902,0.25109863,0.30517578,-3.3569336,-0.5493164
110098,0.9321289,-0.28381348,0.24841309,0.18310547,-3.6621094,-0.48828125
110088,0.93359375,-0.2841797,0.24707031,0.30517578,-3.479004,-0.61035156
110098,0.9321289,-0.28381348,0.24841309,0.18310547,-3.6621094,-0.48828125
110108,0.9354248,-0.28564453,0.24597168,-0.12207031,-3.7231445,-0.4272461
110108,0.9354248,-0.28564453,0.24597168,-0.12207031,-3.7231445,-0.4272461
110118,0.93322754,-0.28833008,0.2434082,-0.30517578,-3.6010742,-0.4272461
110118,0.93322754,-0.28833008,0.2434082,-0.30517578,-3.6010742,-0.4272461
110128,0.9313965,-0.28845215,0.24108887,-0.12207031,-3.2958984,-0.36621094
110138,0.92736816,-0.28930664,0.24621582,0.061035156,-3.2348633,0.0
110128,0.9313965,-0.28845215,0.24108887,-0.12207031,-3.2958984,-0.36621094
110138,0.92736816,-0.28930664,0.24621582,0.061035156,-3.2348633,0.0
110148,0.92419434,-0.29516602,0.25280762,0.0,-3.0517578,0.36621094
110148,0.92419434,-0.29516602,0.25280762,0.0,-3.0517578,0.36621094
110168,0.92944336,-0.2857666,0.24902344,1.0375977,-3.7841797,0.061035156
110168,0.92944336,-0.2857666,0.24902344,1.0375977,-3.7841797,0.061035156
110188,0.94055176,-0.28015137,0.23876953,0.91552734,-4.0283203,0.0
110188,0.94055176,-0.28015137,0.23876953,0.91552734,-4.0283203,0.0
110198,0.9412842,-0.2845459,0.22998047,0.24414062,-4.0283203,0.0
110198,0.9412842,-0.2845459,0.22998047,0.24414062,-4.0283203,0.0
110208,0.9370117,-0.2878418,0.2244873,-0.061035156,-3.7841797,-0.12207031
110208,0.9370117,-0.2878418,0.2244873,-0.061035156,-3.7841797,-0.12207031
110218,0.9328613,-0.2902832,0.22729492,-0.12207031,-3.2958984,-0.30517578
110218,0.9328613,-0.2902832,0.22729492,-0.12207031,-3.2958984,-0.30517578
110228,0.92529297,-0.29333496,0.23718262,-0.18310547,-2.746582,-0.4272461
110228,0.92529297,-0.29333496,0.23718262,-0.18310547,-2.746582,-0.4272461
110238,0.9244385,-0.296875,0.24768066,0.0,-2.5634766,-0.36621094
110238,0.9244385,-0.296875,0.24768066,0.0,-2.5634766,-0.36621094
110248,0.92822266,-0.2984619,0.2557373,0.30517578,-2.5024414,-0.30517578
110248,0.92822266,-0.2984619,0.2557373,0.30517578,-2.5024414,-0.30517578
110258,0.9350586,-0.3005371,0.25598145,0.8544922,-2.6245117,-0.18310547
110258,0.9350586,-0.3005371,0.25598145,0.8544922,-2.6245117,-0.18310547
110268,0.9411621,-0.29882812,0.25012207,1.2817383,-2.5024414,-0.18310547
110268,0.9411621,-0.29882812,0.25012207,1.2817383,-2.5024414,-0.18310547
110278,0.9470215,-0.29711914,0.24035645,1.5258789,-2.1972656,-0.36621094
110278,0.9470215,-0.29711914,0.24035645,1.5258789,-2.1972656,-0.36621094
110288,0.9448242,-0.2935791,0.24194336,1.5258789,-1.5869141,-0.4272461
110288,0.9448242,-0.2935791,0.24194336,1.5258789,-1.5869141,-0.4272461
110298,0.9421387,-0.29309082,0.25024414,1.4648438,-1.2817383,-0.4272461
110298,0.9421387,-0.29309082,0.25024414,1.4648438,-1.2817383,-0.4272461
110308,0.9373779,-0.29309082,0.2536621,1.5258789,-1.4038086,-0.61035156
110328,0.92492676,-0.2869873,0.23303223,0.91552734,-2.9907227,-1.0375977
110308,0.9373779,-0.29309082,0.2536621,1.5258789,-1.4038086,-0.61035156
110328,0.92492676,-0.2869873,0.23303223,0.91552734,-2.9907227,-1.0375977
110348,0.9226074,-0.29187012,0.23474121,1.2207031,-2.5634766,-0.8544922
110358,0.92248535,-0.29260254,0.23547363,1.4038086,-2.0751953,-0.6713867
110348,0.9226074,-0.29187012,0.23474121,1.2207031,-2.5634766,-0.8544922
110368,0.9243164,-0.29638672,0.2421875,1.4648438,-1.6479492,-0.5493164
110358,0.92248535,-0.29260254,0.23547363,1.4038086,-2.0751953,-0.6713867
110368,0.9243164,-0.29638672,0.2421875,1.4648438,-1.6479492,-0.5493164
110378,0.92626953,-0.29736328,0.2524414,1.4648438,-1.6479492,-0.5493164
110388,0.9284668,-0.30041504,0.25756836,1.4038086,-1.6479492,-0.5493164
110398,0.9304199,-0.29797363,0.25439453,1.2817383,-2.0141602,-0.61035156
110378,0.92626953,-0.29736328,0.2524414,1.4648438,-1.6479492,-0.5493164
110388,0.9284668,-0.30041504,0.25756836,1.4038086,-1.6479492,-0.5493164
110398,0.9304199,-0.29797363,0.25439453,1.2817383,-2.0141602,-0.61035156
110408,0.93151855,-0.289917,0.24731445,1.159668,-2.1972656,-0.6713867
110418,0.92822266,-0.28723145,0.24572754,1.0986328,-2.1362305,-0.61035156
110408,0.93151855,-0.289917,0.24731445,1.159668,-2.1972656,-0.6713867
110418,0.92822266,-0.28723145,0.24572754,1.0986328,-2.1362305,-0.61035156
110428,0.92492676,-0.28393555,0.24377441,1.0986328,-2.1972656,-0.48828125
110438,0.92626953,-0.2824707,0.24145508,1.0986328,-2.1362305,-0.4272461
110499,0.92285156,-0.29370117,0.2532959,0.6713867,-1.8920898,-0.91552734
110428,0.92492676,-0.28393555,0.24377441,1.0986328,-2.1972656,-0.48828125
110438,0.92626953,-0.2824707,0.24145508,1.0986328,-2.1362305,-0.4272461
110499,0.92285156,-0.29370117,0.2532959,0.6713867,-1.8920898,-0.91552734
110509,0.9205322,-0.29248047,0.2508545,0.9765625,-2.319336,-0.91552734
110509,0.9205322,-0.29248047,0.2508545,0.9765625,-2.319336,-0.91552734
110519,0.92077637,-0.29089355,0.24645996,1.159668,-2.5634766,-0.7324219
110519,0.92077637,-0.29089355,0.24645996,1.159668,-2.5634766,-0.7324219
110529,0.92126465,-0.29162598,0.24047852,1.2817383,-2.6245117,-0.61035156
110539,0.92419434,-0.2915039,0.23510742,1.2207031,-2.380371,-0.48828125
110529,0.92126465,-0.29162598,0.24047852,1.2817383,-2.6245117,-0.61035156
110539,0.92419434,-0.2915039,0.23510742,1.2207031,-2.380371,-0.48828125
110549,0.92993164,-0.29089355,0.2355957,1.0375977,-1.8920898,-0.5493164
110549,0.92993164,-0.29089355,0.2355957,1.0375977,-1.8920898,-0.5493164
110559,0.9317627,-0.28967285,0.24169922,0.9765625,-1.4038086,-0.6713867
110559,0.9317627,-0.28967285,0.24169922,0.9765625,-1.4038086,-0.6713867
110569,0.93481445,-0.29040527,0.25146484,0.91552734,-0.9765625,-0.79345703
110569,0.93481445,-0.29040527,0.25146484,0.91552734,-0.9765625,-0.79345703
110579,0.9354248,-0.29418945,0.25646973,0.9765625,-0.9765625,-0.9765625
110579,0.9354248,-0.29418945,0.25646973,0.9765625,-0.9765625,-0.9765625
110589,0.9346924,-0.2977295,0.26037598,1.0375977,-1.3427734,-0.91552734
110589,0.9346924,-0.2977295,0.26037598,1.0375977,-1.3427734,-0.91552734
110599,0.9345703,-0.29870605,0.25878906,1.2207031,-1.8920898,-0.9765625
110599,0.9345703,-0.29870605,0.25878906,1.2207031,-1.8920898,-0.9765625
110609,0.9296875,-0.29821777,0.2557373,1.159668,-2.1362305,-1.0986328
110609,0.9296875,-0.29821777,0.2557373,1.159668,-2.1362305,-1.0986328
110619,0.9243164,-0.2956543,0.25341797,1.0375977,-2.319336,-1.159668
110619,0.9243164,-0.2956543,0.25341797,1.0375977,-2.319336,-1.159668
110639,0.9199219,-0.29711914,0.24865723,1.2207031,-2.746582,-1.159668
110639,0.9199219,-0.29711914,0.24865723,1.2207031,-2.746582,-1.159668
110659,0.92700195,-0.29748535,0.25378418,1.5258789,-2.8076172,-1.3427734
110659,0.92700195,-0.29748535,0.25378418,1.5258789,-2.8076172,-1.3427734
110669,0.93115234,-0.29467773,0.25476074,1.4648438,-2.9907227,-1.3427734
110669,0.93115234,-0.29467773,0.25476074,1.4648438,-2.9907227,-1.3427734
110679,0.93151855,-0.2927246,0.25476074,1.3427734,-2.9907227,-1.3427734
110679,0.93151855,-0.2927246,0.25476074,1.3427734,-2.9907227,-1.3427734
110689,0.9312744,-0.29162598,0.25024414,1.2817383,-3.0517578,-1.4648438
110689,0.9312744,-0.29162598,0.25024414,1.2817383,-3.0517578,-1.4648438
110699,0.92993164,-0.29003906,0.24780273,1.3427734,-2.8076172,-1.4648438
110699,0.92993164,-0.29003906,0.24780273,1.3427734,-2.8076172,-1.4648438
110709,0.92871094,-0.29284668,0.24609375,1.4648438,-2.746582,-1.4038086
110709,0.92871094,-0.29284668,0.24609375,1.4648438,-2.746582,-1.4038086
110719,0.9289551,-0.29516602,0.24621582,1.7089844,-2.8686523,-1.2207031
110719,0.9289551,-0.29516602,0.24621582,1.7089844,-2.8686523,-1.2207031
110729,0.92871094,-0.29260254,0.24438477,2.0141602,-2.9296875,-1.2817383
110729,0.92871094,-0.29260254,0.24438477,2.0141602,-2.9296875,-1.2817383
110739,0.9284668,-0.28918457,0.2421875,1.953125,-2.8686523,-1.3427734
110739,0.9284668,-0.28918457,0.2421875,1.953125,-2.8686523,-1.3427734
110749,0.92993164,-0.2869873,0.2409668,1.8310547,-2.9296875,-1.4648438
110749,0.92993164,-0.2869873,0.2409668,1.8310547,-2.9296875,-1.4648438
110759,0.93273926,-0.28601074,0.24438477,1.5258789,-2.746582,-1.3427734
110759,0.93273926,-0.28601074,0.24438477,1.5258789,-2.746582,-1.3427734
110769,0.9346924,-0.28527832,0.24816895,1.2207031,-2.746582,-1.2207031
110769,0.9346924,-0.28527832,0.24816895,1.2207031,-2.746582,-1.2207031
110779,0.93603516,-0.28845215,0.24890137,1.0986328,-2.5024414,-1.0986328
110779,0.93603516,-0.28845215,0.24890137,1.0986328,-2.5024414,-1.0986328
110789,0.9370117,-0.29138184,0.24853516,1.6479492,-2.2583008,-0.91552734
110789,0.9370117,-0.29138184,0.24853516,1.6479492,-2.2583008,-0.91552734
110809,0.9291992,-0.28967285,0.24621582,2.0751953,-2.4414062,-1.0986328
110809,0.9291992,-0.28967285,0.24621582,2.0751953,-2.4414062,-1.0986328
110819,0.9265137,-0.28527832,0.24047852,1.8920898,-2.6245117,-1.2207031
110819,0.9265137,-0.28527832,0.24047852,1.8920898,-2.6245117,-1.2207031
110829,0.92492676,-0.28308105,0.23657227,1.7700195,-2.6245117,-1.2817383
110829,0.92492676,-0.28308105,0.23657227,1.7700195,-2.6245117,-1.2817383
110839,0.9205322,-0.28503418,0.23669434,1.7700195,-2.5634766,-1.2207031
110839,0.9205322,-0.28503418,0.23669434,1.7700195,-2.5634766,-1.2207031
110849,0.9217529,-0.27868652,0.24133301,1.8920898,-2.6245117,-1.0986328
110849,0.9217529,-0.27868652,0.24133301,1.8920898,-2.6245117,-1.0986328
110859,0.9296875,-0.27819824,0.24780273,1.5258789,-2.5634766,-0.91552734
110859,0.9296875,-0.27819824,0.24780273,1.5258789,-2.5634766,-0.91552734
110869,0.93652344,-0.28112793,0.25146484,0.79345703,-2.319336,-0.7324219
110869,0.93652344,-0.28112793,0.25146484,0.79345703,-2.319336,-0.7324219
110879,0.93811035,-0.28222656,0.24926758,0.36621094,-2.1362305,-0.5493164
110879,0.93811035,-0.28222656,0.24926758,0.36621094,-2.1362305,-0.5493164
110889,0.9407959,-0.28771973,0.24780273,0.6713867,-2.0141602,-0.4272461
110889,0.9407959,-0.28771973,0.24780273,0.6713867,-2.0141602,-0.4272461
110899,0.93933105,-0.29333496,0.24951172,1.3427734,-1.8920898,-0.5493164
110899,0.93933105,-0.29333496,0.24951172,1.3427734,-1.8920898,-0.5493164
110909,0.93688965,-0.29174805,0.25427246,1.8310547,-2.0141602,-0.61035156
110919,0.93066406,-0.2894287,0.256958,1.7089844,-2.5024414,-0.61035156
110909,0.93688965,-0.29174805,0.25427246,1.8310547,-2.0141602,-0.61035156
110929,0.9265137,-0.28845215,0.2536621,1.3427734,-3.112793,-0.61035156
110919,0.93066406,-0.2894287,0.256958,1.7089844,-2.5024414,-0.61035156
110939,0.9263916,-0.28723145,0.24072266,0.91552734,-3.6621094,-0.7324219
110929,0.9265137,-0.28845215,0.2536621,1.3427734,-3.112793,-0.61035156
110939,0.9263916,-0.28723145,0.24072266,0.91552734,-3.6621094,-0.7324219
110949,0.92858887,-0.2854004,0.23425293,0.8544922,-3.112793,-0.5493164
110949,0.92858887,-0.2854004,0.23425293,0.8544922,-3.112793,-0.5493164
110969,0.9239502,-0.2915039,0.25390625,0.18310547,-1.953125,-0.12207031
110969,0.9239502,-0.2915039,0.25390625,0.18310547,-1.953125,-0.12207031
110989,0.928833,-0.30004883,0.26135254,0.0,-1.6479492,0.0
110989,0.928833,-0.30004883,0.26135254,0.0,-1.6479492,0.0
110999,0.93310547,-0.29956055,0.26342773,0.30517578,-2.0141602,-0.12207031
110999,0.93310547,-0.29956055,0.26342773,0.30517578,-2.0141602,-0.12207031
111009,0.9361572,-0.29248047,0.26062012,0.7324219,-2.6245117,-0.4272461
111019,0.9350586,-0.28649902,0.25500488,0.7324219,-3.2348633,-0.5493164
111009,0.9361572,-0.29248047,0.26062012,0.7324219,-2.6245117,-0.4272461
111029,0.9361572,-0.28222656,0.24584961,0.7324219,-3.6621094,-0.5493164
111019,0.9350586,-0.28649902,0.25500488,0.7324219,-3.2348633,-0.5493164
111039,0.9343262,-0.2800293,0.23718262,0.5493164,-3.7841797,-0.79345703
111029,0.9361572,-0.28222656,0.24584961,0.7324219,-3.6621094,-0.5493164
111049,0.9350586,-0.27746582,0.23510742,0.6713867,-3.4179688,-0.6713867
111039,0.9343262,-0.2800293,0.23718262,0.5493164,-3.7841797,-0.79345703
111059,0.9349365,-0.28051758,0.23962402,0.5493164,-2.8686523,-0.7324219
111049,0.9350586,-0.27746582,0.23510742,0.6713867,-3.4179688,-0.6713867
111069,0.9337158,-0.2869873,0.2487793,0.5493164,-2.2583008,-0.61035156
111059,0.9349365,-0.28051758,0.23962402,0.5493164,-2.8686523,-0.7324219
111079,0.9346924,-0.29284668,0.2548828,0.4272461,-1.7089844,-0.61035156
111069,0.9337158,-0.2869873,0.2487793,0.5493164,-2.2583008,-0.61035156
111089,0.9321289,-0.29504395,0.25830078,0.4272461,-1.5258789,-0.79345703
111079,0.9346924,-0.29284668,0.2548828,0.4272461,-1.7089844,-0.61035156
111099,0.928833,-0.29455566,0.26049805,0.4272461,-1.5869141,-0.6713867
111089,0.9321289,-0.29504395,0.25830078,0.4272461,-1.5258789,-0.79345703
111109,0.92785645,-0.29101562,0.26062012,0.4272461,-1.8310547,-0.61035156
111099,0.928833,-0.29455566,0.26049805,0.4272461,-1.5869141,-0.6713867
111129,0.93188477,-0.28063965,0.24743652,-0.4272461,-2.4414062,-0.48828125
111109,0.92785645,-0.29101562,0.26062012,0.4272461,-1.8310547,-0.61035156
111129,0.93188477,-0.28063965,0.24743652,-0.4272461,-2.4414062,-0.48828125
111149,0.9313965,-0.28967285,0.2515869,-0.30517578,-2.1972656,-0.48828125
111159,0.9295654,-0.2923584,0.25439453,0.0,-2.319336,-0.4272461
111169,0.9293213,-0.29431152,0.25524902,0.24414062,-2.6245117,-0.4272461
111149,0.9313965,-0.28967285,0.2515869,-0.30517578,-2.1972656,-0.48828125
111179,0.92993164,-0.29943848,0.25317383,0.36621094,-2.6245117,-0.5493164
111189,0.9300537,-0.30004883,0.2508545,0.48828125,-2.6245117,-0.6713867
111159,0.9295654,-0.2923584,0.25439453,0.0,-2.319336,-0.4272461
111169,0.9293213,-0.29431152,0.25524902,0.24414062,-2.6245117,-0.4272461
111179,0.92993164,-0.29943848,0.25317383,0.36621094,-2.6245117,-0.5493164
111189,0.9300537,-0.30004883,0.2508545,0.48828125,-2.6245117,-0.6713867
111199,0.9301758,-0.29516602,0.2524414,0.36621094,-2.6245117,-0.7324219
111199,0.9301758,-0.29516602,0.2524414,0.36621094,-2.6245117,-0.7324219
111209,0.9295654,-0.29077148,0.25354004,0.30517578,-2.319336,-0.7324219
111209,0.9295654,-0.29077148,0.25354004,0.30517578,-2.319336,-0.7324219
111219,0.9309082,-0.2915039,0.25427246,0.36621094,-2.1972656,-0.7324219
111219,0.9309082,-0.2915039,0.25427246,0.36621094,-2.1972656,-0.7324219
111229,0.9328613,-0.29003906,0.2536621,0.36621094,-2.380371,-0.79345703
111229,0.9328613,-0.29003906,0.2536621,0.36621094,-2.380371,-0.79345703
111239,0.93237305,-0.28735352,0.2515869,0.30517578,-2.5634766,-0.6713867
111239,0.93237305,-0.28735352,0.2515869,0.30517578,-2.5634766,-0.6713867
111249,0.9329834,-0.28894043,0.2503662,0.24414062,-2.6245117,-0.61035156
111249,0.9329834,-0.28894043,0.2503662,0.24414062,-2.6245117,-0.61035156
111259,0.93115234,-0.29125977,0.24658203,0.30517578,-2.746582,-0.5493164
111259,0.93115234,-0.29125977,0.24658203,0.30517578,-2.746582,-0.5493164
111269,0.93078613,-0.29345703,0.24414062,0.24414062,-2.6855469,-0.48828125
111269,0.93078613,-0.29345703,0.24414062,0.24414062,-2.6855469,-0.48828125
111279,0.92944336,-0.2939453,0.24487305,0.24414062,-2.380371,-0.61035156
111279,0.92944336,-0.2939453,0.24487305,0.24414062,-2.380371,-0.61035156
111299,0.93029785,-0.29223633,0.2545166,0.12207031,-2.380371,-0.61035156
111299,0.93029785,-0.29223633,0.2545166,0.12207031,-2.380371,-0.61035156
111319,0.93408203,-0.29052734,0.25378418,0.12207031,-2.319336,-0.48828125
111329,0.9367676,-0.28930664,0.24768066,0.24414062,-2.319336,-0.36621094
111319,0.93408203,-0.29052734,0.25378418,0.12207031,-2.319336,-0.48828125
111339,0.9345703,-0.28881836,0.24621582,0.18310547,-2.1362305,-0.4272461
111329,0.9367676,-0.28930664,0.24768066,0.24414062,-2.319336,-0.36621094
111339,0.9345703,-0.28881836,0.24621582,0.18310547,-2.1362305,-0.4272461
111349,0.9324951,-0.29089355,0.24926758,0.061035156,-1.7700195,-0.6713867
111349,0.9324951,-0.29089355,0.24926758,0.061035156,-1.7700195,-0.6713867
111359,0.93151855,-0.2939453,0.25268555,0.061035156,-1.8920898,-0.6713867
111359,0.93151855,-0.2939453,0.25268555,0.061035156,-1.8920898,-0.6713867
111369,0.93237305,-0.29333496,0.25354004,0.12207031,-2.1362305,-0.61035156
111369,0.93237305,-0.29333496,0.25354004,0.12207031,-2.1362305,-0.61035156
111379,0.9304199,-0.29174805,0.2557373,0.061035156,-2.1972656,-0.79345703
111379,0.9304199,-0.29174805,0.2557373,0.061035156,-2.1972656,-0.79345703
111389,0.9313965,-0.29077148,0.2536621,-0.18310547,-2.5024414,-0.91552734
111389,0.9313965,-0.29077148,0.2536621,-0.18310547,-2.5024414,-0.91552734
111399,0.93151855,-0.2911377,0.25024414,-0.24414062,-2.4414062,-0.79345703
111399,0.93151855,-0.2911377,0.25024414,-0.24414062,-2.4414062,-0.79345703
111409,0.93188477,-0.29125977,0.2487793,-0.18310547,-2.1972656,-0.7324219
111419,0.9309082,-0.29187012,0.25170898,0.12207031,-1.8920898,-0.6713867
111409,0.93188477,-0.29125977,0.2487793,-0.18310547,-2.1972656,-0.7324219
111429,0.93273926,-0.2927246,0.2545166,0.4272461,-1.7089844,-0.5493164
111419,0.9309082,-0.29187012,0.25170898,0.12207031,-1.8920898,-0.6713867
111429,0.93273926,-0.2927246,0.2545166,0.4272461,-1.7089844,-0.5493164
111439,0.9345703,-0.29309082,0.25390625,0.61035156,-1.5869141,-0.7324219
111439,0.9345703,-0.29309082,0.25390625,0.61035156,-1.5869141,-0.7324219
111459,0.93566895,-0.28637695,0.2487793,0.48828125,-1.5258789,-1.2207031
111459,0.93566895,-0.28637695,0.2487793,0.48828125,-1.5258789,-1.2207031
111479,0.92822266,-0.28430176,0.2529297,0.61035156,-1.3427734,-1.3427734
111479,0.92822266,-0.28430176,0.2529297,0.61035156,-1.3427734,-1.3427734
111489,0.92822266,-0.2906494,0.25524902,0.61035156,-1.4038086,-1.159668
111489,0.92822266,-0.2906494,0.25524902,0.61035156,-1.4038086,-1.159668
111499,0.9301758,-0.29504395,0.25476074,0.7324219,-1.7089844,-1.0986328
111499,0.9301758,-0.29504395,0.25476074,0.7324219,-1.7089844,-1.0986328
111509,0.9333496,-0.29248047,0.25170898,0.9765625,-1.7089844,-1.159668
111509,0.9333496,-0.29248047,0.25170898,0.9765625,-1.7089844,-1.159668
111519,0.93725586,-0.28759766,0.2508545,1.2207031,-1.6479492,-1.3427734
111519,0.93725586,-0.28759766,0.2508545,1.2207031,-1.6479492,-1.3427734
111529,0.94189453,-0.28381348,0.24768066,1.159668,-1.5258789,-1.4648438
111529,0.94189453,-0.28381348,0.24768066,1.159668,-1.5258789,-1.4648438
111539,0.9428711,-0.27978516,0.24389648,0.79345703,-1.3427734,-1.5258789
111539,0.9428711,-0.27978516,0.24389648,0.79345703,-1.3427734,-1.5258789
111549,0.9399414,-0.2803955,0.24047852,0.12207031,-1.0986328,-1.5869141
111559,0.93359375,-0.28234863,0.23779297,-0.18310547,-0.79345703,-1.7089844
111549,0.9399414,-0.2803955,0.24047852,0.12207031,-1.0986328,-1.5869141
111569,0.9300537,-0.2816162,0.2401123,0.061035156,-0.6713867,-1.8920898
111559,0.93359375,-0.28234863,0.23779297,-0.18310547,-0.79345703,-1.7089844
111579,0.93115234,-0.2821045,0.25024414,0.48828125,-0.36621094,-1.7700195
111569,0.9300537,-0.2816162,0.2401123,0.061035156,-0.6713867,-1.8920898
111589,0.928833,-0.28857422,0.2578125,0.6713867,-0.18310547,-1.6479492
111579,0.93115234,-0.2821045,0.25024414,0.48828125,-0.36621094,-1.7700195
111589,0.928833,-0.28857422,0.2578125,0.6713867,-0.18310547,-1.6479492
111599,0.9291992,-0.288208,0.26171875,0.7324219,-0.18310547,-1.5258789
111599,0.9291992,-0.288208,0.26171875,0.7324219,-0.18310547,-1.5258789
111609,0.9272461,-0.28527832,0.25805664,1.4038086,-0.5493164,-1.4038086
111609,0.9272461,-0.28527832,0.25805664,1.4038086,-0.5493164,-1.4038086
111629,0.92370605,-0.28930664,0.24499512,1.2817383,-0.7324219,-1.0986328
111629,0.92370605,-0.28930664,0.24499512,1.2817383,-0.7324219,-1.0986328
111639,0.92285156,-0.28466797,0.23840332,0.61035156,-0.6713867,-0.9765625
111639,0.92285156,-0.28466797,0.23840332,0.61035156,-0.6713867,-0.9765625
111649,0.9234619,-0.27844238,0.23828125,0.12207031,-0.36621094,-0.91552734
111649,0.9234619,-0.27844238,0.23828125,0.12207031,-0.36621094,-0.91552734
111659,0.92578125,-0.2746582,0.24682617,-0.12207031,-0.061035156,-0.8544922
111659,0.92578125,-0.2746582,0.24682617,-0.12207031,-0.061035156,-0.8544922
111669,0.9265137,-0.2767334,0.25646973,-0.36621094,0.24414062,-0.7324219
111669,0.9265137,-0.2767334,0.25646973,-0.36621094,0.24414062,-0.7324219
111679,0.92529297,-0.2800293,0.2647705,-0.36621094,0.24414062,-0.6713867
111679,0.92529297,-0.2800293,0.2647705,-0.36621094,0.24414062,-0.6713867
111689,0.927124,-0.28393555,0.2692871,-0.36621094,0.061035156,-0.6713867
111689,0.927124,-0.28393555,0.2692871,-0.36621094,0.061035156,-0.6713867
111699,0.9296875,-0.2866211,0.2685547,-0.36621094,-0.36621094,-0.6713867
111699,0.9296875,-0.2866211,0.2685547,-0.36621094,-0.36621094,-0.6713867
111709,0.93115234,-0.28955078,0.26330566,-0.4272461,-0.6713867,-0.5493164
111709,0.93115234,-0.28955078,0.26330566,-0.4272461,-0.6713867,-0.5493164
111719,0.93078613,-0.2919922,0.2578125,-0.24414062,-0.8544922,-0.5493164
111719,0.93078613,-0.2919922,0.2578125,-0.24414062,-0.8544922,-0.5493164
111729,0.9281006,-0.28833008,0.25793457,0.12207031,-0.61035156,-0.5493164
111729,0.9281006,-0.28833008,0.25793457,0.12207031,-0.61035156,-0.5493164
111739,0.92492676,-0.28271484,0.2623291,0.4272461,-0.36621094,-0.5493164
111749,0.92700195,-0.28320312,0.26611328,0.61035156,-0.36621094,-0.48828125
111739,0.92492676,-0.28271484,0.2623291,0.4272461,-0.36621094,-0.5493164
111749,0.92700195,-0.28320312,0.26611328,0.61035156,-0.36621094,-0.48828125
111759,0.93151855,-0.28173828,0.26452637,0.79345703,-0.61035156,-0.48828125
111769,0.9349365,-0.27624512,0.2574463,0.7324219,-0.91552734,-0.48828125
111759,0.93151855,-0.28173828,0.26452637,0.79345703,-0.61035156,-0.48828125
111789,0.9284668,-0.28796387,0.26013184,-0.48828125,-0.6713867,-0.48828125
111769,0.9349365,-0.27624512,0.2574463,0.7324219,-0.91552734,-0.48828125
111789,0.9284668,-0.28796387,0.26013184,-0.48828125,-0.6713867,-0.48828125
111809,0.92333984,-0.28930664,0.27246094,-0.36621094,-0.7324219,-0.30517578
111819,0.92492676,-0.2923584,0.27001953,-0.061035156,-1.0375977,-0.12207031
111809,0.92333984,-0.28930664,0.27246094,-0.36621094,-0.7324219,-0.30517578
111829,0.9256592,-0.2977295,0.26611328,0.36621094,-1.2817383,0.0
111819,0.92492676,-0.2923584,0.27001953,-0.061035156,-1.0375977,-0.12207031
111839,0.92419434,-0.30358887,0.265625,1.0375977,-1.2817383,0.12207031
111829,0.9256592,-0.2977295,0.26611328,0.36621094,-1.2817383,0.0
111839,0.92419434,-0.30358887,0.265625,1.0375977,-1.2817383,0.12207031
111849,0.9178467,-0.30322266,0.26391602,1.7700195,-1.2207031,-0.061035156
111849,0.9178467,-0.30322266,0.26391602,1.7700195,-1.2207031,-0.061035156
111859,0.92077637,-0.30187988,0.26379395,2.319336,-1.2207031,-0.36621094
111859,0.92077637,-0.30187988,0.26379395,2.319336,-1.2207031,-0.36621094
111869,0.9234619,-0.29736328,0.26306152,2.746582,-1.2817383,-0.4272461
111869,0.9234619,-0.29736328,0.26306152,2.746582,-1.2817383,-0.4272461
111879,0.92407227,-0.2927246,0.2623291,2.746582,-1.3427734,-0.48828125
111879,0.92407227,-0.2927246,0.2623291,2.746582,-1.3427734,-0.48828125
111889,0.9238281,-0.2935791,0.2631836,2.5634766,-1.4648438,-0.48828125
111889,0.9238281,-0.2935791,0.2631836,2.5634766,-1.4648438,-0.48828125
111899,0.920166,-0.28686523,0.265625,2.1972656,-1.6479492,-0.36621094
111899,0.920166,-0.28686523,0.265625,2.1972656,-1.6479492,-0.36621094
111909,0.91552734,-0.2788086,0.27111816,2.1362305,-1.8310547,-0.4272461
111909,0.91552734,-0.2788086,0.27111816,2.1362305,-1.8310547,-0.4272461
111919,0.9165039,-0.27893066,0.27038574,2.4414062,-2.380371,-0.30517578
111919,0.9165039,-0.27893066,0.27038574,2.4414062,-2.380371,-0.30517578
111929,0.91552734,-0.2722168,0.26745605,2.6855469,-2.9296875,15.50293
111929,0.91552734,-0.2722168,0.26745605,2.6855469,-2.9296875,15.50293
111949,0.9301758,-0.26782227,0.23791504,1.0986328,-3.540039,0.18310547
111949,0.9301758,-0.26782227,0.23791504,1.0986328,-3.540039,0.18310547
111969,0.94226074,-0.29711914,0.25756836,0.9765625,-2.6855469,0.24414062
111969,0.94226074,-0.29711914,0.25756836,0.9765625,-2.6855469,0.24414062
111979,0.9367676,-0.31018066,0.27160645,1.3427734,-2.1972656,-0.18310547
111989,0.930542,-0.31347656,0.2857666,2.2583008,-2.0751953,-0.79345703
111979,0.9367676,-0.31018066,0.27160645,1.3427734,-2.1972656,-0.18310547
111989,0.930542,-0.31347656,0.2857666,2.2583008,-2.0751953,-0.79345703
111999,0.9199219,-0.30786133,0.29882812,3.0517578,-2.319336,-1.4648438
111999,0.9199219,-0.30786133,0.29882812,3.0517578,-2.319336,-1.4648438
112009,0.9136963,-0.30493164,0.30847168,3.8452148,-2.9296875,-1.7089844
112009,0.9136963,-0.30493164,0.30847168,3.8452148,-2.9296875,-1.7089844
112019,0.9104004,-0.2984619,0.31030273,4.3945312,-4.0893555,-2.0141602
112019,0.9104004,-0.2984619,0.31030273,4.3945312,-4.0893555,-2.0141602
112029,0.91259766,-0.2939453,0.30444336,4.8217773,-5.3710938,-1.8310547
112039,0.92285156,-0.29516602,0.2866211,4.8217773,-6.4697266,-1.4648438
112029,0.91259766,-0.2939453,0.30444336,4.8217773,-5.3710938,-1.8310547
112039,0.92285156,-0.29516602,0.2866211,4.8217773,-6.4697266,-1.4648438
112049,0.9309082,-0.30419922,0.2672119,4.5166016,-6.7749023,-1.2817383
112049,0.9309082,-0.30419922,0.2672119,4.5166016,-6.7749023,-1.2817383
112059,0.93408203,-0.31237793,0.25976562,4.760742,-6.225586,-1.2207031
112059,0.93408203,-0.31237793,0.25976562,4.760742,-6.225586,-1.2207031
112069,0.9321289,-0.31298828,0.2557373,5.3100586,-5.432129,-1.2817383
112069,0.9321289,-0.31298828,0.2557373,5.3100586,-5.432129,-1.2817383
112079,0.9268799,-0.32165527,0.25598145,6.4086914,-4.3945312,-1.3427734
112079,0.9268799,-0.32165527,0.25598145,6.4086914,-4.3945312,-1.3427734
112089,0.9173584,-0.31848145,0.25769043,7.5683594,-3.6621094,-1.8310547
112089,0.9173584,-0.31848145,0.25769043,7.5683594,-3.6621094,-1.8310547
112099,0.91345215,-0.31396484,0.26586914,8.911133,-3.1738281,-2.746582
112099,0.91345215,-0.31396484,0.26586914,8.911133,-3.1738281,-2.746582
112119,0.9390869,-0.27441406,0.2980957,10.375977,-4.5166016,-3.540039
112119,0.9390869,-0.27441406,0.2980957,10.375977,-4.5166016,-3.540039
112139,0.93774414,-0.27001953,0.29675293,8.361816,-6.8969727,-3.112793
112139,0.93774414,-0.27001953,0.29675293,8.361816,-6.8969727,-3.112793
112149,0.9301758,-0.27954102,0.29040527,8.056641,-7.873535,-2.9907227
112149,0.9301758,-0.27954102,0.29040527,8.056641,-7.873535,-2.9907227
112159,0.9267578,-0.2956543,0.2816162,8.178711,-8.605957,-2.8686523
112159,0.9267578,-0.2956543,0.2816162,8.178711,-8.605957,-2.8686523
112169,0.9268799,-0.3067627,0.27441406,8.7890625,-8.911133,-3.0517578
112169,0.9268799,-0.3067627,0.27441406,8.7890625,-8.911133,-3.0517578
112179,0.9260254,-0.30578613,0.26867676,9.277344,-8.7890625,-3.479004
112189,0.9272461,-0.30065918,0.26330566,9.94873,-8.605957,-3.7841797
112179,0.9260254,-0.30578613,0.26867676,9.277344,-8.7890625,-3.479004
112189,0.9272461,-0.30065918,0.26330566,9.94873,-8.605957,-3.7841797
112199,0.9293213,-0.2919922,0.26013184,10.253906,-8.239746,-4.0893555
112199,0.9293213,-0.2919922,0.26013184,10.253906,-8.239746,-4.0893555
112209,0.930542,-0.28710938,0.26159668,10.070801,-7.8125,-4.1503906
112209,0.930542,-0.28710938,0.26159668,10.070801,-7.8125,-4.1503906
112219,0.9293213,-0.28173828,0.2659912,9.155273,-7.446289,-4.272461
112219,0.9293213,-0.28173828,0.2659912,9.155273,-7.446289,-4.272461
112229,0.92578125,-0.27807617,0.26904297,7.446289,-7.385254,-4.333496
112239,0.9215088,-0.28027344,0.26757812,5.92041,-7.507324,-4.211426
112229,0.92578125,-0.27807617,0.26904297,7.446289,-7.385254,-4.333496
112239,0.9215088,-0.28027344,0.26757812,5.92041,-7.507324,-4.211426
112249,0.9210205,-0.2738037,0.2574463,4.4555664,-7.8125,-4.0893555
112259,0.92456055,-0.26281738,0.24438477,3.7841797,-7.8125,-3.479004
112249,0.9210205,-0.2738037,0.2574463,4.4555664,-7.8125,-4.0893555
112259,0.92456055,-0.26281738,0.24438477,3.7841797,-7.8125,-3.479004
112279,0.9472656,-0.25683594,0.25305176,5.6152344,-6.958008,-2.8076172
112279,0.9472656,-0.25683594,0.25305176,5.6152344,-6.958008,-2.8076172
112299,0.95007324,-0.2565918,0.25720215,4.9438477,-6.958008,-2.1362305
112299,0.95007324,-0.2565918,0.25720215,4.9438477,-6.958008,-2.1362305
112309,0.9503174,-0.2680664,0.25354004,3.3569336,-6.713867,-2.0141602
112309,0.9503174,-0.2680664,0.25354004,3.3569336,-6.713867,-2.0141602
112319,0.9355469,-0.26159668,0.24694824,1.953125,-6.1035156,-2.1972656
112319,0.9355469,-0.26159668,0.24694824,1.953125,-6.1035156,-2.1972656
112329,0.92370605,-0.1986084,0.25280762,1.0986328,-5.432129,-1.7700195
112329,0.92370605,-0.1986084,0.25280762,1.0986328,-5.432129,-1.7700195
112339,0.9713135,-0.38391113,0.24255371,0.9765625,-5.126953,-0.8544922
112339,0.9713135,-0.38391113,0.24255371,0.9765625,-5.126953,-0.8544922
112349,0.93188477,-0.31835938,0.20031738,5.065918,-4.272461,-3.7231445
112349,0.93188477,-0.31835938,0.20031738,5.065918,-4.272461,-3.7231445
112359,0.93652344,-0.33068848,0.23730469,6.4697266,-2.5634766,-5.065918
112359,0.93652344,-0.33068848,0.23730469,6.4697266,-2.5634766,-5.065918
112369,0.91845703,-0.288208,0.26342773,9.58252,-1.8310547,-6.4086914
112369,0.91845703,-0.288208,0.26342773,9.58252,-1.8310547,-6.4086914
112379,0.9071045,-0.21020508,0.2709961,9.887695,-2.8076172,-6.5307617
112379,0.9071045,-0.21020508,0.2709961,9.887695,-2.8076172,-6.5307617
112389,0.9259033,-0.23010254,0.27331543,5.493164,-4.211426,-4.5166016
112389,0.9259033,-0.23010254,0.27331543,5.493164,-4.211426,-4.5166016
112399,0.9373779,-0.25341797,0.256958,1.5869141,-5.004883,-3.0517578
112399,0.9373779,-0.25341797,0.256958,1.5869141,-5.004883,-3.0517578
112409,0.93237305,-0.27624512,0.24145508,-1.5258789,-4.699707,-2.4414062
112409,0.93237305,-0.27624512,0.24145508,-1.5258789,-4.699707,-2.4414062
112419,0.9091797,-0.24084473,0.23706055,-2.380371,-3.479004,-2.1362305
112419,0.9091797,-0.24084473,0.23706055,-2.380371,-3.479004,-2.1362305
112429,0.9232178,-0.25512695,0.2532959,-2.746582,-2.5024414,-0.30517578
112429,0.9232178,-0.25512695,0.2532959,-2.746582,-2.5024414,-0.30517578
112449,0.9736328,-0.35791016,0.22375488,-1.159668,-2.2583008,-0.18310547
112449,0.9736328,-0.35791016,0.22375488,-1.159668,-2.2583008,-0.18310547
112469,0.93981934,-0.22680664,0.26184082,9.094238,-0.6713867,-5.432129
112469,0.93981934,-0.22680664,0.26184082,9.094238,-0.6713867,-5.432129
112479,0.94714355,-0.23156738,0.25,8.605957,-1.7089844,-5.1879883
112479,0.94714355,-0.23156738,0.25,8.605957,-1.7089844,-5.1879883
112489,0.94433594,-0.23449707,0.22851562,6.5307617,-2.0751953,-4.8217773
112489,0.94433594,-0.23449707,0.22851562,6.5307617,-2.0751953,-4.8217773
112499,0.9354248,-0.25,0.23596191,3.4179688,-1.0986328,-4.699707
112499,0.9354248,-0.25,0.23596191,3.4179688,-1.0986328,-4.699707
112509,0.92614746,-0.2574463,0.2536621,2.5024414,-0.30517578,-4.1503906
112509,0.92614746,-0.2574463,0.2536621,2.5024414,-0.30517578,-4.1503906
112519,0.9222412,-0.25231934,0.26281738,1.7700195,-0.61035156,-3.6010742
112519,0.9222412,-0.25231934,0.26281738,1.7700195,-0.61035156,-3.6010742
112529,0.92297363,-0.2548828,0.2607422,0.6713867,-1.4038086,-2.746582
112529,0.92297363,-0.2548828,0.2607422,0.6713867,-1.4038086,-2.746582
112539,0.9343262,-0.26367188,0.2524414,0.24414062,-2.1972656,-2.0141602
112539,0.9343262,-0.26367188,0.2524414,0.24414062,-2.1972656,-2.0141602
112549,0.9472656,-0.27404785,0.2421875,1.0375977,-2.5634766,-1.7089844
112549,0.9472656,-0.27404785,0.2421875,1.0375977,-2.5634766,-1.7089844
112559,0.9572754,-0.2755127,0.23864746,2.6855469,-2.319336,-1.953125
112559,0.9572754,-0.2755127,0.23864746,2.6855469,-2.319336,-1.953125
112569,0.96447754,-0.27331543,0.24072266,4.5166016,-1.7089844,-2.5634766
112579,0.963501,-0.25964355,0.24682617,5.859375,-0.91552734,-3.3569336
112569,0.96447754,-0.27331543,0.24072266,4.5166016,-1.7089844,-2.5634766
112579,0.963501,-0.25964355,0.24682617,5.859375,-0.91552734,-3.3569336
112589,0.9547119,-0.25012207,0.25195312,6.225586,-0.24414062,-4.699707
112589,0.9547119,-0.25012207,0.25195312,6.225586,-0.24414062,-4.699707
112609,0.9337158,-0.23095703,0.26208496,3.112793,-0.8544922,-4.699707
112609,0.9337158,-0.23095703,0.26208496,3.112793,-0.8544922,-4.699707
112629,0.93200684,-0.23815918,0.25952148,2.5024414,-2.1362305,-3.7841797
112629,0.93200684,-0.23815918,0.25952148,2.5024414,-2.1362305,-3.7841797
112639,0.9272461,-0.24230957,0.26159668,1.5258789,-2.5024414,-3.479004
112639,0.9272461,-0.24230957,0.26159668,1.5258789,-2.5024414,-3.479004
112649,0.92456055,-0.24414062,0.26428223,0.4272461,-2.8076172,-3.479004
112649,0.92456055,-0.24414062,0.26428223,0.4272461,-2.8076172,-3.479004
112659,0.9289551,-0.25439453,0.26245117,0.36621094,-3.0517578,-3.3569336
112659,0.9289551,-0.25439453,0.26245117,0.36621094,-3.0517578,-3.3569336
112669,0.9244385,-0.25463867,0.2619629,1.5258789,-3.112793,-3.479004
112669,0.9244385,-0.25463867,0.2619629,1.5258789,-3.112793,-3.479004
112679,0.93029785,-0.24682617,0.26611328,1.953125,-3.1738281,-3.6010742
112679,0.93029785,-0.24682617,0.26611328,1.953125,-3.1738281,-3.6010742
112689,0.9379883,-0.25610352,0.26550293,2.8076172,-3.112793,-3.4179688
112689,0.9379883,-0.25610352,0.26550293,2.8076172,-3.112793,-3.4179688
112699,0.93640137,-0.25305176,0.26086426,3.479004,-3.1738281,-3.6010742
112699,0.93640137,-0.25305176,0.26086426,3.479004,-3.1738281,-3.6010742
112709,0.93969727,-0.25439453,0.25720215,4.0283203,-3.3569336,-3.6621094
112709,0.93969727,-0.25439453,0.25720215,4.0283203,-3.3569336,-3.6621094
112719,0.9416504,-0.25024414,0.2602539,4.272461,-3.4179688,-3.7841797
112719,0.9416504,-0.25024414,0.2602539,4.272461,-3.4179688,-3.7841797
112729,0.9378662,-0.24328613,0.2631836,3.8452148,-3.7841797,-4.0893555
112729,0.9378662,-0.24328613,0.2631836,3.8452148,-3.7841797,-4.0893555
112739,0.9362793,-0.2487793,0.26452637,2.8076172,-4.1503906,-4.211426
112739,0.9362793,-0.2487793,0.26452637,2.8076172,-4.1503906,-4.211426
112749,0.93359375,-0.24914551,0.26708984,2.0751953,-4.333496,-4.0893555
112749,0.93359375,-0.24914551,0.26708984,2.0751953,-4.333496,-4.0893555
112769,0.92993164,-0.24951172,0.26879883,-0.8544922,-5.493164,-2.4414062
112789,0.95666504,-0.2503662,0.25097656,-0.48828125,-6.4697266,-1.5258789
112769,0.92993164,-0.24951172,0.26879883,-0.8544922,-5.493164,-2.4414062
112789,0.95666504,-0.2503662,0.25097656,-0.48828125,-6.4697266,-1.5258789
112799,0.96325684,-0.2532959,0.23779297,0.4272461,-6.225586,-1.8310547
112799,0.96325684,-0.2532959,0.23779297,0.4272461,-6.225586,-1.8310547
112809,0.9659424,-0.24597168,0.23278809,1.3427734,-5.2490234,-2.5634766
112809,0.9659424,-0.24597168,0.23278809,1.3427734,-5.2490234,-2.5634766
112819,0.9577637,-0.23620605,0.22839355,1.8920898,-3.7841797,-3.2958984
112819,0.9577637,-0.23620605,0.22839355,1.8920898,-3.7841797,-3.2958984
112829,0.9517822,-0.21850586,0.23181152,1.2207031,-2.380371,-3.9672852
112829,0.9517822,-0.21850586,0.23181152,1.2207031,-2.380371,-3.9672852
112839,0.94628906,-0.2052002,0.23730469,-0.061035156,-1.2207031,-4.1503906
112839,0.94628906,-0.2052002,0.23730469,-0.061035156,-1.2207031,-4.1503906
112849,0.93859863,-0.20593262,0.25280762,-1.0986328,-0.7324219,-3.3569336
112849,0.93859863,-0.20593262,0.25280762,-1.0986328,-0.7324219,-3.3569336
112859,0.9295654,-0.21923828,0.26574707,-1.953125,-1.0375977,-2.5024414
112859,0.9295654,-0.21923828,0.26574707,-1.953125,-1.0375977,-2.5024414
112869,0.9250488,-0.23120117,0.27734375,-2.6245117,-1.953125,-1.7700195
112869,0.9250488,-0.23120117,0.27734375,-2.6245117,-1.953125,-1.7700195
112879,0.9263916,-0.24267578,0.27819824,-3.3569336,-2.8686523,-1.5258789
112879,0.9263916,-0.24267578,0.27819824,-3.3569336,-2.8686523,-1.5258789
112889,0.9373779,-0.24060059,0.26513672,-3.2958984,-3.6010742,-1.6479492
112889,0.9373779,-0.24060059,0.26513672,-3.2958984,-3.6010742,-1.6479492
112899,0.9482422,-0.23291016,0.25341797,-3.2958984,-4.0893555,-1.7089844
112899,0.9482422,-0.23291016,0.25341797,-3.2958984,-4.0893555,-1.7089844
112909,0.94873047,-0.23547363,0.24145508,-2.6855469,-4.1503906,-1.7089844
112909,0.94873047,-0.23547363,0.24145508,-2.6855469,-4.1503906,-1.7089844
112919,0.9490967,-0.24438477,0.23522949,-0.7324219,-2.8076172,-2.0751953
112939,0.9449463,-0.25024414,0.2565918,4.272461,-1.159668,-3.0517578
112919,0.9490967,-0.24438477,0.23522949,-0.7324219,-2.8076172,-2.0751953
112959,0.94018555,-0.2409668,0.27355957,4.8217773,-2.0751953,-3.6010742
112939,0.9449463,-0.25024414,0.2565918,4.272461,-1.159668,-3.0517578
112959,0.94018555,-0.2409668,0.27355957,4.8217773,-2.0751953,-3.6010742
112969,0.93237305,-0.23840332,0.27124023,5.7373047,-3.4179688,-3.540039
112969,0.93237305,-0.23840332,0.27124023,5.7373047,-3.4179688,-3.540039
112979,0.92211914,-0.22229004,0.27404785,5.3100586,-4.5776367,-3.7231445
112979,0.92211914,-0.22229004,0.27404785,5.3100586,-4.5776367,-3.7231445
113050,0.95581055,-0.20751953,0.24707031,1.2207031,-10.009766,-1.6479492
113050,0.95581055,-0.20751953,0.24707031,1.2207031,-10.009766,-1.6479492
113060,0.9571533,-0.22814941,0.24316406,2.1362305,-10.131836,-1.3427734
113060,0.9571533,-0.22814941,0.24316406,2.1362305,-10.131836,-1.3427734
113070,0.9468994,-0.2557373,0.24780273,6.3476562,-9.643555,-2.5634766
113070,0.9468994,-0.2557373,0.24780273,6.3476562,-9.643555,-2.5634766
113090,0.91674805,-0.22924805,0.23864746,4.638672,-10.925293,-3.479004
113090,0.91674805,-0.22924805,0.23864746,4.638672,-10.925293,-3.479004
113100,0.9088135,-0.17736816,0.2640381,2.8076172,-11.474609,-2.319336
113100,0.9088135,-0.17736816,0.2640381,2.8076172,-11.474609,-2.319336
113110,0.97875977,-0.41577148,0.2548828,1.6479492,-12.390137,-1.2817383
113110,0.97875977,-0.41577148,0.2548828,1.6479492,-12.390137,-1.2817383
113120,0.94104004,-0.31188965,0.2515869,9.094238,-12.329102,-6.4086914
113120,0.94104004,-0.31188965,0.2515869,9.094238,-12.329102,-6.4086914
113130,0.96240234,-0.27294922,0.24304199,14.953613,-11.84082,-9.033203
113140,0.96325684,-0.22363281,0.25061035,12.878418,-11.535645,-9.82666
113130,0.96240234,-0.27294922,0.24304199,14.953613,-11.84082,-9.033203
113140,0.96325684,-0.22363281,0.25061035,12.878418,-11.535645,-9.82666
113150,0.9694824,-0.2064209,0.26867676,11.71875,-11.59668,-9.277344
113150,0.9694824,-0.2064209,0.26867676,11.71875,-11.59668,-9.277344
113160,0.97961426,-0.20166016,0.27453613,11.59668,-12.573242,-8.239746
113160,0.97961426,-0.20166016,0.27453613,11.59668,-12.573242,-8.239746
113170,0.99194336,-0.20031738,0.25732422,13.671875,-13.916016,-7.8125
113170,0.99194336,-0.20031738,0.25732422,13.671875,-13.916016,-7.8125
113180,0.9855957,-0.19702148,0.23327637,16.479492,-14.709473,-7.6293945
113180,0.9855957,-0.19702148,0.23327637,16.479492,-14.709473,-7.6293945
113190,0.98864746,-0.21948242,0.22009277,18.737793,-14.282227,-7.6904297
113190,0.98864746,-0.21948242,0.22009277,18.737793,-14.282227,-7.6904297
113200,0.97753906,-0.22436523,0.19665527,19.89746,-13.061523,-8.666992
113200,0.97753906,-0.22436523,0.19665527,19.89746,-13.061523,-8.666992
113210,0.97424316,-0.22570801,0.20263672,18.005371,-11.047363,-9.82666
113210,0.97424316,-0.22570801,0.20263672,18.005371,-11.047363,-9.82666
113220,0.94958496,-0.21643066,0.20654297,16.174316,-8.911133,-10.498047
113220,0.94958496,-0.21643066,0.20654297,16.174316,-8.911133,-10.498047
113230,0.94421387,-0.19726562,0.21875,13.427734,-7.1411133,-9.765625
113250,0.9366455,-0.17504883,0.22143555,2.2583008,-7.385254,-7.1411133
113230,0.94421387,-0.19726562,0.21875,13.427734,-7.1411133,-9.765625
113270,0.94262695,-0.1850586,0.23095703,1.4648438,-8.728027,-5.004883
113250,0.9366455,-0.17504883,0.22143555,2.2583008,-7.385254,-7.1411133
113280,0.9534912,-0.19897461,0.2355957,3.479004,-9.94873,-4.760742
113270,0.94262695,-0.1850586,0.23095703,1.4648438,-8.728027,-5.004883
113290,0.9764404,-0.2133789,0.23608398,6.7749023,-11.047363,-5.065918
113280,0.9534912,-0.19897461,0.2355957,3.479004,-9.94873,-4.760742
113300,0.9807129,-0.20922852,0.234375,9.521484,-11.71875,-6.0424805
113290,0.9764404,-0.2133789,0.23608398,6.7749023,-11.047363,-5.065918
113310,0.99768066,-0.21582031,0.22937012,12.145996,-12.329102,-7.1411133
113300,0.9807129,-0.20922852,0.234375,9.521484,-11.71875,-6.0424805
113320,0.9937744,-0.22045898,0.21459961,14.221191,-12.878418,-8.300781
113310,0.99768066,-0.21582031,0.22937012,12.145996,-12.329102,-7.1411133
113330,0.97802734,-0.19714355,0.1842041,15.50293,-12.756348,-9.460449
113320,0.9937744,-0.22045898,0.21459961,14.221191,-12.878418,-8.300781
113340,0.9770508,-0.18786621,0.18713379,13.671875,-11.535645,-10.375977
113330,0.97802734,-0.19714355,0.1842041,15.50293,-12.756348,-9.460449
113350,0.97753906,-0.19567871,0.1895752,12.451172,-10.314941,-10.864258
113340,0.9770508,-0.18786621,0.18713379,13.671875,-11.535645,-10.375977
113360,0.97888184,-0.19616699,0.19006348,13.000488,-9.338379,-11.169434
113370,0.97631836,-0.18188477,0.2084961,11.59668,-8.666992,-11.413574
113350,0.97753906,-0.19567871,0.1895752,12.451172,-10.314941,-10.864258
113380,0.9794922,-0.17614746,0.2166748,10.498047,-8.728027,-11.108398
113360,0.97888184,-0.19616699,0.19006348,13.000488,-9.338379,-11.169434
113390,0.9593506,-0.16479492,0.22302246,11.779785,-9.094238,-10.498047
113370,0.97631836,-0.18188477,0.2084961,11.59668,-8.666992,-11.413574
113380,0.9794922,-0.17614746,0.2166748,10.498047,-8.728027,-11.108398
113390,0.9593506,-0.16479492,0.22302246,11.779785,-9.094238,-10.498047
113410,0.95129395,-0.1427002,0.18676758,11.047363,-10.7421875,-8.972168
113410,0.95129395,-0.1427002,0.18676758,11.047363,-10.7421875,-8.972168
113430,0.9663086,-0.13415527,0.16918945,4.4555664,-7.6293945,-7.446289
113430,0.9663086,-0.13415527,0.16918945,4.4555664,-7.6293945,-7.446289
113440,0.9577637,-0.13061523,0.1694336,2.6245117,-5.493164,-6.713867
113440,0.9577637,-0.13061523,0.1694336,2.6245117,-5.493164,-6.713867
113450,0.9602051,-0.12524414,0.1706543,0.5493164,-3.4179688,-5.6762695
113450,0.9602051,-0.12524414,0.1706543,0.5493164,-3.4179688,-5.6762695
113460,0.96240234,-0.12109375,0.17504883,-1.2207031,-2.1362305,-4.699707
113460,0.96240234,-0.12109375,0.17504883,-1.2207031,-2.1362305,-4.699707
113470,0.9667969,-0.11328125,0.17736816,-2.4414062,-1.3427734,-4.0893555
113480,0.9746094,-0.12060547,0.18164062,-3.2348633,-0.79345703,-3.7231445
113470,0.9667969,-0.11328125,0.17736816,-2.4414062,-1.3427734,-4.0893555
113490,0.9869385,-0.13220215,0.18774414,-2.8076172,-0.24414062,-3.6010742
113480,0.9746094,-0.12060547,0.18164062,-3.2348633,-0.79345703,-3.7231445
113490,0.9869385,-0.13220215,0.18774414,-2.8076172,-0.24414062,-3.6010742
113500,0.98791504,-0.16870117,0.21240234,-2.0751953,0.061035156,-3.7231445
113500,0.98791504,-0.16870117,0.21240234,-2.0751953,0.061035156,-3.7231445
113510,0.9897461,-0.24938965,0.2626953,1.0986328,-0.6713867,-4.333496
113510,0.9897461,-0.24938965,0.2626953,1.0986328,-0.6713867,-4.333496
113520,0.9923096,-0.29003906,0.3062744,7.3242188,-3.112793,-6.652832
113520,0.9923096,-0.29003906,0.3062744,7.3242188,-3.112793,-6.652832
113530,0.97094727,-0.24609375,0.3013916,13.183594,-7.751465,-9.94873
113530,0.97094727,-0.24609375,0.3013916,13.183594,-7.751465,-9.94873
113540,0.98095703,-0.1809082,0.258667,15.197754,-13.244629,-11.962891
113540,0.98095703,-0.1809082,0.258667,15.197754,-13.244629,-11.962891
113550,0.9766846,-0.11022949,0.2064209,15.686035,-16.906738,-12.145996
113560,0.97106934,-0.091796875,0.17883301,14.526367,-15.197754,-8.850098
113550,0.9766846,-0.11022949,0.2064209,15.686035,-16.906738,-12.145996
113580,0.98864746,-0.18457031,0.22607422,15.930176,-14.099121,-13.244629
113560,0.97106934,-0.091796875,0.17883301,14.526367,-15.197754,-8.850098
113600,0.9642334,-0.02722168,0.11364746,10.314941,-13.671875,-11.962891
113580,0.98864746,-0.18457031,0.22607422,15.930176,-14.099121,-13.244629
113610,0.95654297,-0.06762695,0.10864258,6.164551,-11.474609,-8.239746
113600,0.9642334,-0.02722168,0.11364746,10.314941,-13.671875,-11.962891
113620,0.9246826,-0.0769043,0.11352539,5.7373047,-8.361816,-6.4697266
113610,0.95654297,-0.06762695,0.10864258,6.164551,-11.474609,-8.239746
113630,0.9133301,-0.049072266,0.13317871,6.4086914,-5.493164,-5.3710938
113620,0.9246826,-0.0769043,0.11352539,5.7373047,-8.361816,-6.4697266
113640,0.9185791,-0.02758789,0.17248535,5.92041,-4.272461,-3.479004
113650,0.91833496,-0.03869629,0.20568848,5.493164,-4.5776367,-1.4038086
113630,0.9133301,-0.049072266,0.13317871,6.4086914,-5.493164,-5.3710938
113640,0.9185791,-0.02758789,0.17248535,5.92041,-4.272461,-3.479004
113650,0.91833496,-0.03869629,0.20568848,5.493164,-4.5776367,-1.4038086
113660,0.9428711,-0.060668945,0.20251465,4.1503906,-5.79834,0.61035156
113660,0.9428711,-0.060668945,0.20251465,4.1503906,-5.79834,0.61035156
113699,0.9902344,-0.072753906,0.1237793,-4.760742,-3.9672852,6.0424805
113699,0.9902344,-0.072753906,0.1237793,-4.760742,-3.9672852,6.0424805
113709,0.9984131,-0.09375,0.1472168,-6.7749023,-2.1362305,6.5307617
113709,0.9984131,-0.09375,0.1472168,-6.7749023,-2.1362305,6.5307617
113719,1.0170898,-0.123168945,0.17077637,-7.9956055,-1.5258789,6.713867
113729,1.0267334,-0.17089844,0.19470215,-7.6293945,-1.8920898,6.4697266
113739,1.0250244,-0.20947266,0.20874023,-6.3476562,-3.479004,2.380371
113719,1.0170898,-0.123168945,0.17077637,-7.9956055,-1.5258789,6.713867
113759,1.0303955,-0.18139648,0.1607666,-4.211426,-3.540039,-1.5258789
113729,1.0267334,-0.17089844,0.19470215,-7.6293945,-1.8920898,6.4697266
113739,1.0250244,-0.20947266,0.20874023,-6.3476562,-3.479004,2.380371
113779,0.9818115,-0.18005371,0.19226074,-3.4179688,0.36621094,-4.272461
113759,1.0303955,-0.18139648,0.1607666,-4.211426,-3.540039,-1.5258789
113789,0.9700928,-0.20825195,0.23547363,-2.2583008,1.5258789,-5.554199
113779,0.9818115,-0.18005371,0.19226074,-3.4179688,0.36621094,-4.272461
113789,0.9700928,-0.20825195,0.23547363,-2.2583008,1.5258789,-5.554199
113799,0.95581055,-0.22802734,0.25610352,-0.48828125,0.8544922,-7.019043
113799,0.95581055,-0.22802734,0.25610352,-0.48828125,0.8544922,-7.019043
113809,0.9404297,-0.21679688,0.2545166,2.0751953,-1.4648438,-8.483887
113819,0.9621582,-0.18786621,0.23852539,5.1879883,-4.5166016,-8.972168
113809,0.9404297,-0.21679688,0.2545166,2.0751953,-1.4648438,-8.483887
113829,0.977417,-0.14379883,0.19812012,10.314941,-7.507324,-7.9956055
113819,0.9621582,-0.18786621,0.23852539,5.1879883,-4.5166016,-8.972168
113839,0.9453125,-0.10632324,0.14892578,13.48877,-9.82666,-6.0424805
113829,0.977417,-0.14379883,0.19812012,10.314941,-7.507324,-7.9956055
113839,0.9453125,-0.10632324,0.14892578,13.48877,-9.82666,-6.0424805
113849,0.9683838,-0.12817383,0.14465332,13.183594,-10.375977,-4.333496
113859,0.9904785,-0.11425781,0.14660645,15.319824,-8.972168,-4.5166016
113849,0.9683838,-0.12817383,0.14465332,13.183594,-10.375977,-4.333496
113869,0.9798584,-0.055664062,0.122924805,16.601562,-6.652832,-4.8828125
113859,0.9904785,-0.11425781,0.14660645,15.319824,-8.972168,-4.5166016
113879,0.9748535,-0.03552246,0.13330078,10.803223,-4.0893555,-3.7841797
113889,0.9465332,-0.021362305,0.17138672,6.4697266,-2.0751953,-1.6479492
113869,0.9798584,-0.055664062,0.122924805,16.601562,-6.652832,-4.8828125
113879,0.9748535,-0.03552246,0.13330078,10.803223,-4.0893555,-3.7841797
113889,0.9465332,-0.021362305,0.17138672,6.4697266,-2.0751953,-1.6479492
113899,0.94470215,-0.043945312,0.22277832,3.540039,-1.953125,0.5493164
113899,0.94470215,-0.043945312,0.22277832,3.540039,-1.953125,0.5493164
113919,0.96435547,-0.11193848,0.18127441,-3.7841797,-10.192871,2.6855469
113919,0.96435547,-0.11193848,0.18127441,-3.7841797,-10.192871,2.6855469
113939,1.0019531,-0.18566895,0.15234375,-6.286621,-11.84082,2.6855469
113939,1.0019531,-0.18566895,0.15234375,-6.286621,-11.84082,2.6855469
113949,0.9885254,-0.17553711,0.1394043,-5.554199,-11.291504,1.2817383
113949,0.9885254,-0.17553711,0.1394043,-5.554199,-11.291504,1.2817383
113959,0.9732666,-0.1138916,0.13671875,-5.1879883,-9.887695,0.061035156
113969,0.96728516,-0.06665039,0.15673828,-4.3945312,-8.300781,0.5493164
113959,0.9732666,-0.1138916,0.13671875,-5.1879883,-9.887695,0.061035156
113979,0.9688721,-0.064208984,0.18859863,-4.0893555,-7.3242188,2.2583008
113969,0.96728516,-0.06665039,0.15673828,-4.3945312,-8.300781,0.5493164
113989,0.97509766,-0.08178711,0.2133789,-4.8828125,-6.8969727,4.1503906
113979,0.9688721,-0.064208984,0.18859863,-4.0893555,-7.3242188,2.2583008
113989,0.97509766,-0.08178711,0.2133789,-4.8828125,-6.8969727,4.1503906
113999,0.99194336,-0.10559082,0.21154785,-6.286621,-7.5683594,5.554199
113999,0.99194336,-0.10559082,0.21154785,-6.286621,-7.5683594,5.554199
114009,1.0126953,-0.13586426,0.18481445,-7.8125,-8.239746,6.4697266
114009,1.0126953,-0.13586426,0.18481445,-7.8125,-8.239746,6.4697266
114019,1.0241699,-0.1661377,0.14282227,-9.155273,-8.422852,6.5307617
114019,1.0241699,-0.1661377,0.14282227,-9.155273,-8.422852,6.5307617
114029,1.0256348,-0.1862793,0.10229492,-10.559082,-7.507324,5.79834
114029,1.0256348,-0.1862793,0.10229492,-10.559082,-7.507324,5.79834
114039,1.0224609,-0.20581055,0.08325195,-11.230469,-5.004883,4.4555664
114039,1.0224609,-0.20581055,0.08325195,-11.230469,-5.004883,4.4555664
114049,1.0063477,-0.21911621,0.09289551,-9.887695,-2.0751953,2.5024414
114049,1.0063477,-0.21911621,0.09289551,-9.887695,-2.0751953,2.5024414
114059,0.9918213,-0.20056152,0.123291016,-6.8969727,0.36621094,0.30517578
114059,0.9918213,-0.20056152,0.123291016,-6.8969727,0.36621094,0.30517578
114069,0.9658203,-0.14758301,0.1607666,-3.7841797,1.5258789,-0.91552734
114069,0.9658203,-0.14758301,0.1607666,-3.7841797,1.5258789,-0.91552734
114089,0.9433594,-0.05822754,0.24926758,-2.5634766,-3.0517578,3.6621094
114089,0.9433594,-0.05822754,0.24926758,-2.5634766,-3.0517578,3.6621094
114109,0.9626465,-0.10217285,0.18310547,-7.507324,-7.9956055,7.6293945
114109,0.9626465,-0.10217285,0.18310547,-7.507324,-7.9956055,7.6293945
114119,0.97558594,-0.13928223,0.1538086,-8.666992,-8.544922,8.361816
114119,0.97558594,-0.13928223,0.1538086,-8.666992,-8.544922,8.361816
114129,0.98657227,-0.17883301,0.13952637,-8.605957,-8.422852,8.117676
114129,0.98657227,-0.17883301,0.13952637,-8.605957,-8.422852,8.117676
114139,0.98828125,-0.18786621,0.13000488,-7.751465,-7.6904297,6.8359375
114139,0.98828125,-0.18786621,0.13000488,-7.751465,-7.6904297,6.8359375
114149,0.9851074,-0.16918945,0.12207031,-5.92041,-7.080078,5.432129
114149,0.9851074,-0.16918945,0.12207031,-5.92041,-7.080078,5.432129
114159,0.98376465,-0.15124512,0.11987305,-3.540039,-6.4697266,4.699707
114159,0.98376465,-0.15124512,0.11987305,-3.540039,-6.4697266,4.699707
114169,0.98327637,-0.14550781,0.12768555,-1.5869141,-5.7373047,4.5166016
114169,0.98327637,-0.14550781,0.12768555,-1.5869141,-5.7373047,4.5166016
114179,0.98583984,-0.1472168,0.14501953,-0.91552734,-5.065918,4.5166016
114179,0.98583984,-0.1472168,0.14501953,-0.91552734,-5.065918,4.5166016
114189,0.9909668,-0.15771484,0.15686035,-1.2817383,-4.760742,4.5166016
114189,0.9909668,-0.15771484,0.15686035,-1.2817383,-4.760742,4.5166016
114199,0.994751,-0.17443848,0.16333008,-2.1362305,-4.8217773,4.333496
114199,0.994751,-0.17443848,0.16333008,-2.1362305,-4.8217773,4.333496
114209,0.9958496,-0.19970703,0.15637207,-2.4414062,-5.065918,3.7231445
114209,0.9958496,-0.19970703,0.15637207,-2.4414062,-5.065918,3.7231445
114219,0.99523926,-0.21569824,0.1394043,-2.380371,-5.065918,2.6245117
114219,0.99523926,-0.21569824,0.1394043,-2.380371,-5.065918,2.6245117
114229,0.9962158,-0.22094727,0.13171387,-2.1362305,-4.5776367,0.36621094
114229,0.9962158,-0.22094727,0.13171387,-2.1362305,-4.5776367,0.36621094
114249,0.9818115,-0.16186523,0.14611816,2.2583008,-3.112793,-0.36621094
114249,0.9818115,-0.16186523,0.14611816,2.2583008,-3.112793,-0.36621094
114269,0.9741211,-0.14562988,0.15283203,1.159668,-3.1738281,0.30517578
114279,0.9748535,-0.15270996,0.15600586,0.36621094,-2.9907227,0.8544922
114269,0.9741211,-0.14562988,0.15283203,1.159668,-3.1738281,0.30517578
114289,0.9764404,-0.16625977,0.16247559,0.0,-3.0517578,1.159668
114279,0.9748535,-0.15270996,0.15600586,0.36621094,-2.9907227,0.8544922
114299,0.97839355,-0.18481445,0.16699219,0.24414062,-3.3569336,1.2207031
114289,0.9764404,-0.16625977,0.16247559,0.0,-3.0517578,1.159668
114299,0.97839355,-0.18481445,0.16699219,0.24414062,-3.3569336,1.2207031
114309,0.9857178,-0.22521973,0.17834473,0.79345703,-3.90625,0.8544922
114309,0.9857178,-0.22521973,0.17834473,0.79345703,-3.90625,0.8544922
114319,0.9934082,-0.25952148,0.1694336,2.4414062,-4.638672,-0.36621094
114319,0.9934082,-0.25952148,0.1694336,2.4414062,-4.638672,-0.36621094
114329,0.98950195,-0.22973633,0.13122559,3.4179688,-5.3100586,-2.380371
114329,0.98950195,-0.22973633,0.13122559,3.4179688,-5.3100586,-2.380371
114339,0.9871826,-0.16601562,0.107177734,3.1738281,-4.5776367,-3.6621094
114339,0.9871826,-0.16601562,0.107177734,3.1738281,-4.5776367,-3.6621094
114349,0.97961426,-0.12890625,0.11584473,3.112793,-2.9907227,-3.0517578
114359,0.9719238,-0.12072754,0.14953613,1.8920898,-1.2817383,-1.7089844
114349,0.97961426,-0.12890625,0.11584473,3.112793,-2.9907227,-3.0517578
114369,0.9671631,-0.1217041,0.17211914,-0.6713867,-0.36621094,-0.4272461
114359,0.9719238,-0.12072754,0.14953613,1.8920898,-1.2817383,-1.7089844
114379,0.9671631,-0.12561035,0.17456055,-3.3569336,-0.61035156,0.7324219
114369,0.9671631,-0.1217041,0.17211914,-0.6713867,-0.36621094,-0.4272461
114379,0.9671631,-0.12561035,0.17456055,-3.3569336,-0.61035156,0.7324219
114389,0.9715576,-0.13110352,0.16540527,-5.126953,-1.5258789,1.8310547
114389,0.9715576,-0.13110352,0.16540527,-5.126953,-1.5258789,1.8310547
114399,0.97424316,-0.14892578,0.14904785,-6.591797,-2.0751953,3.0517578
114399,0.97424316,-0.14892578,0.14904785,-6.591797,-2.0751953,3.0517578
114419,0.9725342,-0.18225098,0.13635254,-5.493164,-1.953125,2.746582
114419,0.9725342,-0.18225098,0.13635254,-5.493164,-1.953125,2.746582
114429,0.9716797,-0.18237305,0.14111328,-4.5776367,-2.2583008,2.4414062
114429,0.9716797,-0.18237305,0.14111328,-4.5776367,-2.2583008,2.4414062
114439,0.9708252,-0.20129395,0.15576172,-3.2348633,-2.8686523,2.0141602
114439,0.9708252,-0.20129395,0.15576172,-3.2348633,-2.8686523,2.0141602
114449,0.982666,-0.22644043,0.17382812,-0.4272461,-3.540039,0.9765625
114449,0.982666,-0.22644043,0.17382812,-0.4272461,-3.540039,0.9765625
114459,0.98779297,-0.2084961,0.15356445,2.1972656,-4.638672,-0.91552734
114459,0.98779297,-0.2084961,0.15356445,2.1972656,-4.638672,-0.91552734
114469,0.9769287,-0.14941406,0.11853027,3.4179688,-5.126953,-2.5024414
114469,0.9769287,-0.14941406,0.11853027,3.4179688,-5.126953,-2.5024414
114479,0.9682617,-0.12414551,0.118774414,3.8452148,-4.333496,-2.2583008
114479,0.9682617,-0.12414551,0.118774414,3.8452148,-4.333496,-2.2583008
114489,0.96154785,-0.12536621,0.14123535,3.1738281,-3.2958984,-1.4648438
114489,0.96154785,-0.12536621,0.14123535,3.1738281,-3.2958984,-1.4648438
114499,0.96325684,-0.1204834,0.16540527,1.4038086,-3.0517578,-0.61035156
114499,0.96325684,-0.1204834,0.16540527,1.4038086,-3.0517578,-0.61035156
114509,0.96765137,-0.11254883,0.1697998,-0.24414062,-3.90625,0.4272461
114509,0.96765137,-0.11254883,0.1697998,-0.24414062,-3.90625,0.4272461
114519,0.97387695,-0.119140625,0.16711426,-1.2207031,-5.2490234,1.8920898
114519,0.97387695,-0.119140625,0.16711426,-1.2207031,-5.2490234,1.8920898
114529,0.97961426,-0.13671875,0.16235352,-0.9765625,-6.3476562,3.2958984
114529,0.97961426,-0.13671875,0.16235352,-0.9765625,-6.3476562,3.2958984
114539,0.9868164,-0.15759277,0.15393066,-0.30517578,-6.958008,3.9672852
114539,0.9868164,-0.15759277,0.15393066,-0.30517578,-6.958008,3.9672852
114549,0.9914551,-0.17663574,0.14611816,0.48828125,-6.8969727,3.8452148
114549,0.9914551,-0.17663574,0.14611816,0.48828125,-6.8969727,3.8452148
114559,0.991333,-0.1850586,0.13903809,1.159668,-6.591797,2.4414062
114559,0.991333,-0.1850586,0.13903809,1.159668,-6.591797,2.4414062
114579,0.9810791,-0.18798828,0.10839844,0.18310547,-4.5166016,1.8920898
114579,0.9810791,-0.18798828,0.10839844,0.18310547,-4.5166016,1.8920898
114599,0.97717285,-0.19763184,0.1282959,1.4648438,-3.112793,1.953125
114609,0.9766846,-0.19360352,0.13806152,1.2817383,-2.6855469,1.5258789
114599,0.97717285,-0.19763184,0.1282959,1.4648438,-3.112793,1.953125
114619,0.98339844,-0.18933105,0.14233398,1.2817383,-2.6245117,1.2207031
114609,0.9766846,-0.19360352,0.13806152,1.2817383,-2.6855469,1.5258789
114619,0.98339844,-0.18933105,0.14233398,1.2817383,-2.6245117,1.2207031
114629,0.9766846,-0.1850586,0.1418457,2.0751953,-2.9296875,1.159668
114639,0.9769287,-0.18151855,0.1427002,1.7700195,-3.1738281,0.79345703
114629,0.9766846,-0.1850586,0.1418457,2.0751953,-2.9296875,1.159668
114639,0.9769287,-0.18151855,0.1427002,1.7700195,-3.1738281,0.79345703
114649,0.9855957,-0.17504883,0.14331055,1.3427734,-3.1738281,0.30517578
114659,0.9852295,-0.1665039,0.14208984,1.0375977,-3.112793,0.18310547
114649,0.9855957,-0.17504883,0.14331055,1.3427734,-3.1738281,0.30517578
114669,0.9827881,-0.16625977,0.13806152,0.36621094,-3.112793,0.4272461
114659,0.9852295,-0.1665039,0.14208984,1.0375977,-3.112793,0.18310547
114679,0.9770508,-0.17260742,0.13476562,-0.36621094,-3.0517578,0.7324219
114669,0.9827881,-0.16625977,0.13806152,0.36621094,-3.112793,0.4272461
114689,0.970459,-0.1817627,0.1373291,-0.9765625,-3.112793,0.79345703
114679,0.9770508,-0.17260742,0.13476562,-0.36621094,-3.0517578,0.7324219
114689,0.970459,-0.1817627,0.1373291,-0.9765625,-3.112793,0.79345703
114699,0.97216797,-0.1895752,0.14050293,-0.91552734,-2.8686523,0.7324219
114699,0.97216797,-0.1895752,0.14050293,-0.91552734,-2.8686523,0.7324219
114709,0.9758301,-0.19445801,0.14245605,-0.36621094,-2.8076172,0.5493164
114709,0.9758301,-0.19445801,0.14245605,-0.36621094,-2.8076172,0.5493164
114719,0.9766846,-0.19262695,0.14477539,-0.18310547,-2.8076172,-15.380859
114719,0.9766846,-0.19262695,0.14477539,-0.18310547,-2.8076172,-15.380859
114739,0.98168945,-0.18798828,0.14331055,-0.7324219,-3.6621094,-0.48828125
114739,0.98168945,-0.18798828,0.14331055,-0.7324219,-3.6621094,-0.48828125
114759,1.0046387,-0.21289062,0.115722656,0.7324219,-2.9907227,-1.2207031
114759,1.0046387,-0.21289062,0.115722656,0.7324219,-2.9907227,-1.2207031
114769,0.9938965,-0.22509766,0.11804199,2.1362305,-2.0141602,-1.8310547
114769,0.9938965,-0.22509766,0.11804199,2.1362305,-2.0141602,-1.8310547
114779,0.9880371,-0.21325684,0.125,2.2583008,-0.9765625,-3.1738281
114789,0.97875977,-0.19714355,0.14208984,2.4414062,-0.4272461,-4.211426
114799,0.97473145,-0.18041992,0.1595459,2.0141602,-0.48828125,-4.8828125
114809,0.9727783,-0.17370605,0.16064453,1.4038086,-1.2207031,-4.9438477
114779,0.9880371,-0.21325684,0.125,2.2583008,-0.9765625,-3.1738281
114789,0.97875977,-0.19714355,0.14208984,2.4414062,-0.4272461,-4.211426
114799,0.97473145,-0.18041992,0.1595459,2.0141602,-0.48828125,-4.8828125
114809,0.9727783,-0.17370605,0.16064453,1.4038086,-1.2207031,-4.9438477
114819,0.9746094,-0.18164062,0.15808105,0.6713867,-1.8920898,-4.5166016
114819,0.9746094,-0.18164062,0.15808105,0.6713867,-1.8920898,-4.5166016
114829,0.98535156,-0.1854248,0.14807129,0.6713867,-2.380371,-4.333496
114829,0.98535156,-0.1854248,0.14807129,0.6713867,-2.380371,-4.333496
114839,0.9890137,-0.18164062,0.13549805,1.2817383,-2.5634766,-4.5166016
114839,0.9890137,-0.18164062,0.13549805,1.2817383,-2.5634766,-4.5166016
114849,0.9824219,-0.18908691,0.12451172,1.953125,-2.319336,-4.5776367
114849,0.9824219,-0.18908691,0.12451172,1.953125,-2.319336,-4.5776367
114859,0.9716797,-0.19836426,0.11987305,3.112793,-2.0751953,-4.8217773
114859,0.9716797,-0.19836426,0.11987305,3.112793,-2.0751953,-4.8217773
114869,0.9661865,-0.20166016,0.12414551,4.272461,-1.6479492,-5.92041
114869,0.9661865,-0.20166016,0.12414551,4.272461,-1.6479492,-5.92041
114879,0.9727783,-0.18200684,0.13549805,5.3710938,-1.2207031,-7.385254
114879,0.9727783,-0.18200684,0.13549805,5.3710938,-1.2207031,-7.385254
114889,0.9737549,-0.15576172,0.14819336,4.9438477,-2.2583008,-8.239746
114889,0.9737549,-0.15576172,0.14819336,4.9438477,-2.2583008,-8.239746
114909,1.0181885,-0.099975586,0.17272949,-0.18310547,-3.9672852,-7.507324
114909,1.0181885,-0.099975586,0.17272949,-0.18310547,-3.9672852,-7.507324
114929,0.94873047,-0.23291016,0.14099121,5.92041,-7.6293945,-3.2348633
114939,0.9440918,-0.20336914,0.14501953,5.79834,-8.728027,-4.5776367
114929,0.94873047,-0.23291016,0.14099121,5.92041,-7.6293945,-3.2348633
114949,0.9559326,-0.08959961,0.15856934,3.479004,-8.7890625,-6.286621
114959,0.96435547,0.009643555,0.16430664,-0.4272461,-8.239746,-5.432129
114969,0.9595947,6.1035156E-4,0.16296387,-3.6010742,-7.8125,-1.6479492
114939,0.9440918,-0.20336914,0.14501953,5.79834,-8.728027,-4.5776367
114979,0.94970703,-0.076416016,0.15441895,-6.7749023,-7.873535,2.5024414
114949,0.9559326,-0.08959961,0.15856934,3.479004,-8.7890625,-6.286621
114989,0.95007324,-0.14978027,0.14318848,-9.643555,-8.239746,4.760742
114959,0.96435547,0.009643555,0.16430664,-0.4272461,-8.239746,-5.432129
114999,0.9637451,-0.1932373,0.13024902,-10.559082,-8.300781,5.3100586
114969,0.9595947,6.1035156E-4,0.16296387,-3.6010742,-7.8125,-1.6479492
115009,0.982666,-0.21154785,0.11730957,-9.887695,-7.9956055,4.760742
114979,0.94970703,-0.076416016,0.15441895,-6.7749023,-7.873535,2.5024414
115019,1.0065918,-0.22180176,0.1105957,-8.605957,-7.385254,3.7841797
115029,1.0230713,-0.2208252,0.10449219,-6.4086914,-6.958008,2.380371
114989,0.95007324,-0.14978027,0.14318848,-9.643555,-8.239746,4.760742
115039,1.024292,-0.19506836,0.10058594,-3.1738281,-5.9814453,0.5493164
114999,0.9637451,-0.1932373,0.13024902,-10.559082,-8.300781,5.3100586
115009,0.982666,-0.21154785,0.11730957,-9.887695,-7.9956055,4.760742
115019,1.0065918,-0.22180176,0.1105957,-8.605957,-7.385254,3.7841797
115029,1.0230713,-0.2208252,0.10449219,-6.4086914,-6.958008,2.380371
115039,1.024292,-0.19506836,0.10058594,-3.1738281,-5.9814453,0.5493164
115049,1.010376,-0.15100098,0.10913086,-0.7324219,-4.760742,-0.9765625
115049,1.010376,-0.15100098,0.10913086,-0.7324219,-4.760742,-0.9765625
115069,0.9941406,-0.13842773,0.1772461,-0.36621094,-4.211426,0.48828125
115069,0.9941406,-0.13842773,0.1772461,-0.36621094,-4.211426,0.48828125
115089,0.9857178,-0.16699219,0.14904785,0.18310547,-7.446289,0.7324219
115089,0.9857178,-0.16699219,0.14904785,0.18310547,-7.446289,0.7324219
115099,0.98095703,-0.18017578,0.12634277,0.12207031,-8.178711,0.4272461
115109,0.9741211,-0.18554688,0.10144043,0.61035156,-8.117676,-0.12207031
115119,0.9752197,-0.17321777,0.09069824,1.3427734,-7.3242188,-0.6713867
115129,0.9744873,-0.15856934,0.10119629,0.8544922,-6.0424805,-0.7324219
115099,0.98095703,-0.18017578,0.12634277,0.12207031,-8.178711,0.4272461
115139,0.975708,-0.14013672,0.11584473,0.79345703,-4.8217773,-0.48828125
115109,0.9741211,-0.18554688,0.10144043,0.61035156,-8.117676,-0.12207031
115119,0.9752197,-0.17321777,0.09069824,1.3427734,-7.3242188,-0.6713867
115129,0.9744873,-0.15856934,0.10119629,0.8544922,-6.0424805,-0.7324219
115139,0.975708,-0.14013672,0.11584473,0.79345703,-4.8217773,-0.48828125
115149,0.9830322,-0.13415527,0.12683105,0.12207031,-3.9672852,0.18310547
115149,0.9830322,-0.13415527,0.12683105,0.12207031,-3.9672852,0.18310547
115159,0.9835205,-0.15026855,0.13049316,-0.36621094,-3.540039,1.0986328
115159,0.9835205,-0.15026855,0.13049316,-0.36621094,-3.540039,1.0986328
115169,0.9810791,-0.17102051,0.13098145,-0.061035156,-3.479004,1.6479492
115169,0.9810791,-0.17102051,0.13098145,-0.061035156,-3.479004,1.6479492
115179,0.97802734,-0.18139648,0.12670898,0.79345703,-3.6621094,1.7089844
115179,0.97802734,-0.18139648,0.12670898,0.79345703,-3.6621094,1.7089844
115189,0.97436523,-0.17687988,0.122802734,1.3427734,-4.0893555,1.6479492
115189,0.97436523,-0.17687988,0.122802734,1.3427734,-4.0893555,1.6479492
115199,0.973999,-0.16772461,0.11987305,1.953125,-4.4555664,1.5869141
115199,0.973999,-0.16772461,0.11987305,1.953125,-4.4555664,1.5869141
115209,0.97314453,-0.15844727,0.115234375,2.380371,-4.5776367,1.7700195
115209,0.97314453,-0.15844727,0.115234375,2.380371,-4.5776367,1.7700195
115219,0.9715576,-0.15393066,0.110961914,1.159668,-4.9438477,2.9907227
115219,0.9715576,-0.15393066,0.110961914,1.159668,-4.9438477,2.9907227
115239,0.9760742,-0.16540527,0.10107422,-0.8544922,-4.8217773,4.8828125
115239,0.9760742,-0.16540527,0.10107422,-0.8544922,-4.8217773,4.8828125
115259,0.98046875,-0.17932129,0.1048584,-2.8076172,-4.3945312,6.652832
115269,0.9805908,-0.1850586,0.10180664,-3.3569336,-4.211426,7.3242188
115259,0.98046875,-0.17932129,0.1048584,-2.8076172,-4.3945312,6.652832
115269,0.9805908,-0.1850586,0.10180664,-3.3569336,-4.211426,7.3242188
115279,0.9812012,-0.18713379,0.095458984,-3.0517578,-3.8452148,7.9345703
115279,0.9812012,-0.18713379,0.095458984,-3.0517578,-3.8452148,7.9345703
115289,0.9802246,-0.19458008,0.08642578,-2.8076172,-3.2348633,8.422852
115289,0.9802246,-0.19458008,0.08642578,-2.8076172,-3.2348633,8.422852
115299,0.9678955,-0.18469238,0.103393555,-1.8920898,-2.380371,8.911133
115299,0.9678955,-0.18469238,0.103393555,-1.8920898,-2.380371,8.911133
115309,0.9580078,-0.18395996,0.09509277,-1.8920898,-2.0751953,9.643555
115309,0.9580078,-0.18395996,0.09509277,-1.8920898,-2.0751953,9.643555
115319,0.95007324,-0.18908691,0.10473633,-2.6855469,-1.6479492,10.437012
115319,0.95007324,-0.18908691,0.10473633,-2.6855469,-1.6479492,10.437012
115329,0.9451904,-0.19238281,0.10571289,-1.7700195,-1.4038086,10.864258
115329,0.9451904,-0.19238281,0.10571289,-1.7700195,-1.4038086,10.864258
115339,0.95092773,-0.18798828,0.095703125,-1.8920898,-1.0986328,10.681152
115339,0.95092773,-0.18798828,0.095703125,-1.8920898,-1.0986328,10.681152
115349,0.9727783,-0.18566895,0.08874512,-3.6010742,-0.18310547,10.375977
115349,0.9727783,-0.18566895,0.08874512,-3.6010742,-0.18310547,10.375977
115359,1.0013428,-0.18249512,0.08129883,-4.4555664,0.7324219,10.498047
115359,1.0013428,-0.18249512,0.08129883,-4.4555664,0.7324219,10.498047
115369,1.0145264,-0.1829834,0.07519531,-5.3710938,2.380371,10.620117
115369,1.0145264,-0.1829834,0.07519531,-5.3710938,2.380371,10.620117
115379,1.0201416,-0.19189453,0.06738281,-7.2021484,4.211426,10.253906
115379,1.0201416,-0.19189453,0.06738281,-7.2021484,4.211426,10.253906
115399,0.98706055,-0.21374512,0.06616211,-11.108398,10.864258,8.972168
115399,0.98706055,-0.21374512,0.06616211,-11.108398,10.864258,8.972168
115419,0.9473877,-0.20031738,0.06750488,-12.756348,15.441895,5.6762695
115419,0.9473877,-0.20031738,0.06750488,-12.756348,15.441895,5.6762695
115429,0.9550781,-0.1932373,0.07873535,-15.197754,17.333984,4.1503906
115429,0.9550781,-0.1932373,0.07873535,-15.197754,17.333984,4.1503906
115439,0.98864746,-0.19580078,0.08642578,-16.540527,18.554688,3.4179688
115439,0.98864746,-0.19580078,0.08642578,-16.540527,18.554688,3.4179688
115449,1.0305176,-0.21142578,0.08508301,-16.967773,19.714355,2.9907227
115449,1.0305176,-0.21142578,0.08508301,-16.967773,19.714355,2.9907227
115459,1.0400391,-0.20959473,0.07946777,-17.700195,21.54541,2.0751953
115459,1.0400391,-0.20959473,0.07946777,-17.700195,21.54541,2.0751953
115469,1.0427246,-0.2265625,0.06970215,-19.592285,24.475098,1.0986328
115469,1.0427246,-0.2265625,0.06970215,-19.592285,24.475098,1.0986328
115479,1.0368652,-0.25512695,0.08898926,-20.996094,27.954102,0.061035156
115479,1.0368652,-0.25512695,0.08898926,-20.996094,27.954102,0.061035156
115489,0.99658203,-0.25756836,0.13842773,-19.470215,31.12793,-1.4038086
115489,0.99658203,-0.25756836,0.13842773,-19.470215,31.12793,-1.4038086
115499,0.9552002,-0.24731445,0.17358398,-16.601562,32.89795,-2.746582
115499,0.9552002,-0.24731445,0.17358398,-16.601562,32.89795,-2.746582
115509,0.9321289,-0.24829102,0.21801758,-14.6484375,32.65381,-3.7841797
115509,0.9321289,-0.24829102,0.21801758,-14.6484375,32.65381,-3.7841797
115519,0.9133301,-0.23059082,0.28894043,-12.329102,30.822754,-4.211426
115519,0.9133301,-0.23059082,0.28894043,-12.329102,30.822754,-4.211426
115529,0.9119873,-0.19506836,0.3458252,-8.728027,26.367188,-3.8452148
115529,0.9119873,-0.19506836,0.3458252,-8.728027,26.367188,-3.8452148
115539,0.89404297,-0.12097168,0.421875,-6.591797,19.714355,-2.0751953
115539,0.89404297,-0.12097168,0.421875,-6.591797,19.714355,-2.0751953
115549,0.8857422,-0.064941406,0.4399414,-11.474609,0.061035156,5.7373047
115549,0.8857422,-0.064941406,0.4399414,-11.474609,0.061035156,5.7373047
115569,1.041748,-0.2640381,0.11010742,-14.038086,-2.746582,4.4555664
115569,1.041748,-0.2640381,0.11010742,-14.038086,-2.746582,4.4555664
115579,1.0196533,-0.28186035,0.119628906,-11.108398,0.5493164,1.3427734
115579,1.0196533,-0.28186035,0.119628906,-11.108398,0.5493164,1.3427734
115589,0.99731445,-0.23962402,0.14453125,-9.277344,3.540039,-1.7700195
115589,0.99731445,-0.23962402,0.14453125,-9.277344,3.540039,-1.7700195
115599,0.9630127,-0.19580078,0.16821289,-10.437012,5.004883,-3.8452148
115599,0.9630127,-0.19580078,0.16821289,-10.437012,5.004883,-3.8452148
115609,0.94140625,-0.18188477,0.17150879,-13.183594,4.760742,-4.1503906
115609,0.94140625,-0.18188477,0.17150879,-13.183594,4.760742,-4.1503906
115619,0.9440918,-0.19909668,0.16723633,-14.404297,4.4555664,-3.1738281
115619,0.9440918,-0.19909668,0.16723633,-14.404297,4.4555664,-3.1738281
115629,0.9472656,-0.19018555,0.17956543,-13.366699,4.699707,-2.0751953
115629,0.9472656,-0.19018555,0.17956543,-13.366699,4.699707,-2.0751953
115639,0.95739746,-0.1862793,0.20263672,-12.268066,5.004883,-0.79345703
115639,0.95739746,-0.1862793,0.20263672,-12.268066,5.004883,-0.79345703
115649,0.9715576,-0.19458008,0.22338867,-10.803223,5.004883,0.7324219
115649,0.9715576,-0.19458008,0.22338867,-10.803223,5.004883,0.7324219
115659,0.9814453,-0.20812988,0.23718262,-9.033203,4.5166016,1.953125
115659,0.9814453,-0.20812988,0.23718262,-9.033203,4.5166016,1.953125
115669,0.9873047,-0.24719238,0.24499512,-7.446289,3.8452148,2.6855469
115669,0.9873047,-0.24719238,0.24499512,-7.446289,3.8452148,2.6855469
115679,0.9814453,-0.26879883,0.24768066,-4.760742,3.0517578,2.5634766
115679,0.9814453,-0.26879883,0.24768066,-4.760742,3.0517578,2.5634766
115689,0.9696045,-0.26611328,0.25793457,-1.7700195,2.4414062,2.0141602
115689,0.9696045,-0.26611328,0.25793457,-1.7700195,2.4414062,2.0141602
115699,0.9595947,-0.25195312,0.2705078,0.8544922,1.6479492,1.4038086
115699,0.9595947,-0.25195312,0.2705078,0.8544922,1.6479492,1.4038086
115709,0.95336914,-0.22949219,0.27893066,3.2348633,-0.9765625,1.5258789
115709,0.95336914,-0.22949219,0.27893066,3.2348633,-0.9765625,1.5258789
115729,0.9711914,-0.2019043,0.23010254,5.554199,-3.1738281,2.8686523
115729,0.9711914,-0.2019043,0.23010254,5.554199,-3.1738281,2.8686523
115749,0.97106934,-0.21801758,0.21252441,5.859375,-3.479004,4.3945312
115749,0.97106934,-0.21801758,0.21252441,5.859375,-3.479004,4.3945312
115759,0.9638672,-0.22558594,0.21777344,5.6762695,-3.4179688,4.8828125
115759,0.9638672,-0.22558594,0.21777344,5.6762695,-3.4179688,4.8828125
115769,0.95947266,-0.22851562,0.22094727,4.5776367,-3.4179688,5.065918
115779,0.9649658,-0.23352051,0.22229004,2.8686523,-3.2958984,5.065918
115789,0.9727783,-0.22814941,0.21069336,1.5869141,-3.479004,5.126953
