time,aX,aY,aZ,gX,gY,gZ
5540, -0.46, 0.13, 0.86, 2.75, -3.60, -0.79
5644, -0.46, 0.13, 0.86, 2.50, -3.66, -0.98
5748, -0.46, 0.13, 0.86, 2.81, -3.60, -0.79
5852, -0.46, 0.13, 0.86, 2.75, -3.66, -0.79
5955, -0.46, 0.14, 0.86, 2.81, -3.66, -0.79
6059, -0.46, 0.13, 0.86, 2.69, -3.66, -0.85
6163, -0.46, 0.13, 0.86, 2.56, -3.60, -0.98
6267, -0.46, 0.13, 0.86, 2.62, -3.60, -0.98
6371, -0.46, 0.13, 0.86, 2.69, -3.54, -0.92
6475, -0.46, 0.13, 0.86, 2.62, -3.54, -0.92
6579, -0.46, 0.13, 0.86, 2.62, -3.48, -0.85
6683, -0.46, 0.13, 0.86, 2.69, -3.60, -0.92
6787, -0.46, 0.13, 0.86, 2.62, -3.60, -0.92
6891, -0.46, 0.13, 0.86, 2.50, -3.66, -0.98
6995, -0.46, 0.13, 0.86, 2.69, -3.78, -0.92
7099, -0.46, 0.13, 0.86, 2.56, -3.66, -0.92
7203, -0.46, 0.13, 0.86, 2.69, -3.48, -0.85
7307, -0.46, 0.13, 0.86, 2.62, -3.54, -0.92
7411, -0.46, 0.14, 0.86, 3.11, -2.81, -0.92
7515, -0.45, 0.13, 0.86, 2.62, -3.60, -1.40
7619, -0.46, 0.13, 0.86, 1.04, -4.70, -1.77
7723, -0.46, 0.12, 0.86, 2.87, -2.99, -0.67
7827, -0.46, 0.14, 0.86, 3.30, -4.27, 0.43
7931, -0.46, 0.13, 0.86, 1.46, -4.33, -1.46
8035, -0.45, 0.13, 0.87, 3.72, -1.95, -1.46
8139, -0.47, 0.14, 0.86, 2.50, -3.23, 0.06
8243, -0.45, 0.13, 0.86, 2.75, -2.08, -1.22
8347, -0.47, 0.13, 0.86, 2.87, -1.28, -0.73
8451, -0.47, 0.13, 0.86, 3.97, 2.14, -1.71
8555, -0.50, 0.14, 0.85, 4.94, 6.35, -5.25
8659, -0.51, 0.13, 0.83, 5.31, 2.14, -1.04
8763, -0.50, 0.13, 0.84, -0.24, -1.71, -0.06
8867, -0.44, 0.13, 0.84, 7.51, -7.57, -9.46
8970, -0.49, 0.11, 0.86, 3.05, -7.81, -1.89
9074, -0.51, 0.15, 0.85, 2.32, -8.54, 0.24
9178, -0.50, 0.15, 0.81, 2.14, -5.55, -0.55
9282, -0.54, 0.19, 0.89, 6.77, 7.08, -3.36
9386, -0.49, 0.13, 0.82, 8.61, -6.16, 0.43
9490, -0.50, 0.15, 0.83, 3.48, -4.52, 2.44
9594, -0.48, 0.10, 0.83, 2.87, -0.43, 2.26
9698, -0.57, 0.13, 0.80, -0.49, 0.55, 2.87
9802, -0.53, 0.17, 0.83, 1.95, 0.79, -0.49
9906, -0.49, 0.16, 0.84, -0.43, -2.75, -2.99
10010, -0.47, 0.18, 0.87, 4.39, -5.86, -2.32
10114, -0.48, 0.20, 0.90, 4.88, -13.06, 1.77
10218, -0.48, 0.14, 0.83, 4.21, -10.68, 4.70
10322, -0.45, 0.16, 0.80, 6.84, -7.32, -1.10
10426, -0.49, 0.18, 0.82, 0.85, -8.85, 3.85
10530, -0.44, 0.17, 0.82, 3.42, -10.31, 1.40
10634, -0.44, 0.18, 0.83, 1.16, -9.03, 5.43
10738, -0.45, 0.15, 0.83, -1.34, -5.25, 8.24
10842, -0.47, 0.14, 0.83, -1.16, -3.72, 2.56
10946, -0.44, 0.17, 0.87, 2.87, -2.01, -2.69
11050, -0.41, 0.19, 0.87, 2.87, -5.49, -0.24
11154, -0.44, 0.19, 0.86, 2.50, -6.29, 2.14
11258, -0.46, 0.15, 0.84, 3.42, -5.68, 2.62
11361, -0.47, 0.14, 0.85, 0.98, -2.08, 1.53
11465, -0.42, 0.19, 0.87, 3.91, -2.56, -2.01
11569, -0.45, 0.18, 0.86, 1.71, -1.95, 0.24
11673, -0.47, 0.18, 0.88, 3.17, 0.55, 0.85
11777, -0.47, 0.18, 0.86, -0.49, 0.43, -1.16
11881, -0.45, 0.16, 0.88, 1.10, -1.34, -5.37
11985, -0.44, 0.17, 0.85, 3.17, 0.18, -3.85
12089, -0.47, 0.18, 0.86, -0.24, -3.72, -4.03
12193, -0.45, 0.15, 0.86, 0.98, -4.21, -2.69
12297, -0.46, 0.15, 0.86, 1.95, -2.62, -1.89
12401, -0.46, 0.15, 0.86, 2.87, -3.78, -0.92
12505, -0.46, 0.16, 0.86, 3.05, -3.48, -0.55
12609, -0.46, 0.15, 0.86, 3.30, -3.30, 0.12
12713, -0.46, 0.16, 0.86, 5.62, -1.65, 0.85
12817, -0.49, 0.15, 0.87, 7.51, -5.13, 1.04
12921, -0.51, 0.13, 0.81, 0.73, -3.30, -2.62
13025, -0.49, 0.17, 0.87, -0.73, -4.33, -5.43
13129, -0.45, 0.15, 0.85, 0.73, -3.97, 1.53
13233, -0.48, 0.18, 0.88, 2.93, -3.97, -2.75
13337, -0.48, 0.14, 0.83, -1.04, -4.94, -0.24
13441, -0.49, 0.15, 0.82, -2.14, 0.67, 0.73
13545, -0.47, 0.17, 0.86, 2.50, 0.00, -0.12
13649, -0.46, 0.14, 0.84, 4.82, -0.37, 2.38
13753, -0.47, 0.11, 0.86, 7.69, 4.27, -3.97
13857, -0.48, 0.14, 0.85, -1.40, 6.29, -0.92
13961, -0.45, 0.11, 0.81, 3.72, 2.08, -5.07
14065, -0.51, 0.19, 0.85, 5.43, -1.77, -4.88
14169, -0.47, 0.13, 0.83, 4.64, -2.50, 0.18
14273, -0.48, 0.16, 0.83, 2.56, -2.99, 1.28
14377, -0.43, 0.21, 0.81, 8.67, -8.61, -4.64
14481, -0.64, -0.04, 1.08, -5.13, -11.35, -4.46
14585, -0.47, 0.13, 0.86, -1.10, -12.94, 1.34
14689, -0.47, 0.15, 0.85, 1.53, -4.82, -1.77
14793, -0.48, 0.16, 0.84, 2.99, -2.99, -1.16
14897, -0.48, 0.15, 0.85, 2.01, -4.03, -1.04
15001, -0.47, 0.14, 0.85, 2.20, -4.09, -1.04
15105, -0.48, 0.15, 0.85, 2.99, -3.11, -0.67
15209, -0.48, 0.15, 0.85, 2.93, -2.69, -0.73
15313, -0.48, 0.15, 0.85, 3.17, -1.40, -0.98
15416, -0.48, 0.16, 0.85, 2.14, 2.44, -2.01
15520, -0.50, 0.14, 0.82, 0.31, 0.55, -2.44
15624, -0.50, 0.15, 0.85, 1.34, -0.98, -2.87
15728, -0.48, 0.14, 0.86, -0.37, -3.66, -0.55
15832, -0.46, 0.11, 0.84, 0.85, -5.43, 0.43
15936, -0.43, 0.15, 0.87, 2.99, -7.57, -2.99
16040, -0.46, 0.14, 0.87, -0.61, -12.02, 6.71
16144, -0.46, 0.12, 0.82, -0.24, -8.79, 6.16
16248, -0.55, 0.18, 0.90, 1.40, 2.38, 6.90
16352, -0.45, 0.18, 0.86, 5.43, -12.57, -2.01
16456, -0.46, 0.17, 0.90, 2.44, -10.74, 8.06
16560, -0.42, 0.14, 0.91, 5.07, -12.02, 1.16
16664, -0.41, 0.14, 0.89, 1.28, -14.59, 5.43
16768, -0.43, 0.14, 0.87, -0.92, -9.52, 3.17
16872, -0.43, 0.15, 0.89, 1.40, -10.01, 0.18
16976, -0.40, 0.14, 0.87, 4.46, -7.39, -2.81
17080, -0.46, 0.15, 0.88, 11.54, 7.81, -4.39
17184, -0.46, 0.16, 0.82, 4.76, 3.48, -3.72
17288, -0.46, 0.17, 0.96, 12.45, 1.28, -8.06
17392, -0.45, 0.22, 0.92, 2.20, -1.65, -2.62
17495, -0.43, 0.17, 0.89, 3.85, -2.32, -0.92
17600, -0.44, 0.12, 0.86, 1.77, -0.85, 0.79
17704, -0.45, 0.16, 0.84, -0.06, -1.10, -1.22
17808, -0.43, 0.16, 0.88, 2.26, -1.53, -3.48
17912, -0.43, 0.18, 0.87, -0.24, -2.20, 0.55
18015, -0.43, 0.17, 0.87, 3.85, -4.09, -1.53
18119, -0.47, 0.18, 0.85, 1.89, -4.58, 0.31
18223, -0.48, 0.15, 0.85, -2.62, -1.77, 4.09
18327, -0.49, 0.14, 0.85, 0.92, -4.88, -0.73
18431, -0.45, 0.15, 0.83, 3.42, -5.31, -1.10
18535, -0.52, 0.13, 0.79, -0.61, -2.08, 1.10
18639, -0.45, 0.13, 0.87, 2.14, 4.46, -8.36
18743, -0.46, 0.16, 0.87, 0.24, 4.76, 2.38
18847, -0.51, 0.10, 0.81, -0.55, 4.46, -1.59
18951, -0.52, 0.17, 0.88, 7.08, 2.01, -3.48
19055, -0.50, 0.08, 0.81, 3.23, 2.69, 4.39
19159, -0.53, 0.15, 0.83, 3.60, 0.18, -11.72
19263, -0.44, 0.15, 0.81, 4.70, -2.01, -10.07
19367, -0.43, 0.19, 0.83, 7.08, -11.78, -5.74
19471, -0.47, 0.18, 0.87, 9.16, -5.74, -2.87
19575, -0.51, 0.18, 0.84, 2.62, -5.86, 2.08
19679, -0.50, 0.13, 0.82, 3.66, -3.97, -0.79
19783, -0.51, 0.17, 0.83, 2.50, -6.96, -2.14
19887, -0.51, 0.16, 0.83, 2.44, -3.42, -1.16
19991, -0.50, 0.15, 0.83, 0.98, -3.48, 0.24
20095, -0.51, 0.15, 0.84, 1.59, -4.39, -0.49
20199, -0.49, 0.14, 0.83, 1.53, -4.58, -0.43
20303, -0.50, 0.14, 0.84, 2.93, -4.58, -0.92
20407, -0.49, 0.16, 0.84, 2.81, -4.64, -0.98
20511, -0.51, 0.14, 0.82, 1.46, -3.91, 0.43
20615, -0.49, 0.16, 0.84, 3.36, -4.03, -1.65
20719, -0.49, 0.14, 0.84, 3.30, -4.94, -1.34
20822, -0.50, 0.15, 0.84, 2.26, -4.52, -0.67
20927, -0.49, 0.15, 0.85, 2.62, -4.03, -1.46
21031, -0.46, 0.14, 0.87, 3.23, -5.00, -2.32
21134, -0.44, 0.16, 0.89, 3.30, -7.26, -2.75
21238, -0.43, 0.16, 0.87, 1.95, -9.77, 0.43
21342, -0.44, 0.15, 0.86, 2.75, -9.77, 2.01
21446, -0.43, 0.14, 0.90, 5.31, -8.06, 0.31
21550, -0.38, 0.17, 0.79, -1.04, -5.43, -6.96
21654, -0.48, 0.15, 0.90, 2.44, -3.42, 2.20
21758, -0.42, 0.17, 0.86, 5.00, -4.64, -0.06
21862, -0.41, 0.17, 0.87, 6.10, -5.92, 2.32
21966, -0.44, 0.18, 0.92, 4.27, -6.65, -0.55
22070, -0.39, 0.16, 0.92, 5.86, -11.11, -0.24
22174, -0.40, 0.19, 0.87, 3.66, -10.80, 6.53
22278, -0.43, 0.13, 0.83, 0.37, -6.59, 7.93
22382, -0.48, 0.13, 0.82, 1.22, 0.49, 2.81
22486, -0.47, 0.17, 0.84, 0.79, -0.12, -3.11
22590, -0.43, 0.19, 0.88, 0.73, -2.81, -0.61
22694, -0.40, 0.16, 0.89, 1.46, -3.60, 0.43
22798, -0.45, 0.19, 0.88, 5.13, -0.43, -0.31
22902, -0.43, 0.16, 0.85, 4.15, -1.65, -1.40
23006, -0.43, 0.16, 0.86, 5.37, -0.12, -2.62
23110, -0.43, 0.18, 0.90, 3.42, -0.37, -1.65
23214, -0.39, 0.20, 0.91, 2.38, -4.46, -3.78
23318, -0.42, 0.20, 0.85, 3.60, -6.71, 1.16
23422, -0.43, 0.17, 0.86, 2.32, -4.21, 0.24
23526, -0.42, 0.17, 0.86, 2.20, -3.30, 0.49
23630, -0.43, 0.17, 0.87, 0.73, -4.64, 0.55
23733, -0.44, 0.18, 0.86, 1.46, -3.23, 0.85
23838, -0.45, 0.20, 0.86, 5.00, -4.88, -2.75
23942, -0.45, 0.17, 0.86, 4.15, -4.52, -3.85
24046, -0.47, 0.16, 0.86, 6.90, 0.12, -4.76
24150, -0.46, 0.21, 0.87, 2.99, 0.00, -5.55
24253, -0.47, 0.15, 0.83, -0.12, 0.24, -1.40
24357, -0.47, 0.15, 0.83, 1.53, 5.86, -1.71
24461, -0.47, 0.17, 0.87, -1.04, 3.66, -6.04
24565, -0.46, 0.18, 0.87, 6.23, -3.54, -6.84
24669, -0.45, 0.19, 0.84, 5.00, -1.89, -2.99
24773, -0.48, 0.14, 0.87, 1.95, 1.28, -2.38
24877, -0.45, 0.17, 0.86, 3.97, -2.56, -4.82
24981, -0.45, 0.18, 0.86, 2.81, -5.37, -2.69
25085, -0.43, 0.16, 0.85, 1.83, -2.56, -2.01
25189, -0.45, 0.22, 0.88, 4.70, -3.05, -5.92
25293, -0.48, 0.19, 0.84, 0.85, -4.33, 1.89
25397, -0.48, 0.19, 0.84, 4.70, -3.91, -0.06
25501, -0.47, 0.17, 0.84, 3.54, -4.21, 0.37
25605, -0.50, 0.16, 0.85, 2.56, -3.91, 1.22
25709, -0.50, 0.19, 0.81, -0.31, -2.56, 5.19
25813, -0.50, 0.14, 0.85, 0.85, -2.01, -0.92
25917, -0.49, 0.14, 0.82, 0.24, -0.67, 2.32
26021, -0.48, 0.20, 0.84, 2.38, -3.23, -2.32
26125, -0.48, 0.17, 0.83, 3.85, -5.13, -2.01
26229, -0.50, 0.17, 0.84, 2.44, -4.03, -1.65
26333, -0.48, 0.17, 0.85, 3.23, -4.33, -1.95
26437, -0.48, 0.16, 0.85, 4.21, -5.62, -1.28
26541, -0.47, 0.18, 0.85, 2.38, -4.94, -0.92
26645, -0.47, 0.19, 0.86, 1.34, -5.25, 1.46
26749, -0.48, 0.16, 0.83, 1.46, -5.55, 2.01
26853, -0.44, 0.20, 0.85, 3.54, -6.04, 0.24
26957, -0.44, 0.18, 0.86, 3.11, -7.63, 1.04
27061, -0.44, 0.16, 0.88, 2.20, -7.75, 1.71
27165, -0.38, 0.19, 0.81, 5.49, -3.30, -2.62
27269, -0.45, 0.17, 0.87, 1.65, -11.17, 3.30
27373, -0.41, 0.22, 0.87, 3.78, -11.29, 0.24
27477, -0.40, 0.21, 0.83, 3.36, -10.62, 3.17
27581, -0.42, 0.19, 0.87, 3.97, -9.95, 2.50
27685, -0.42, 0.18, 0.89, 2.50, -6.47, -1.10
27789, -0.41, 0.18, 0.87, 0.37, -5.13, -0.06
27893, -0.41, 0.18, 0.87, 0.79, -5.68, 0.00
27997, -0.42, 0.19, 0.85, -0.73, -1.89, 0.79
28101, -0.41, 0.19, 0.89, 3.72, -1.53, -2.44
28205, -0.44, 0.20, 0.87, 2.44, -4.76, -0.12
28309, -0.40, 0.19, 0.90, 3.66, -3.91, -1.22
28413, -0.39, 0.18, 0.88, 2.38, -3.97, 1.34
28517, -0.42, 0.18, 0.88, 0.85, -3.30, 1.46
28621, -0.42, 0.18, 0.88, 1.22, -3.30, -0.67
28725, -0.41, 0.18, 0.87, 1.04, -2.81, -0.85
28829, -0.38, 0.20, 0.89, 1.53, -2.62, -0.18
28933, -0.39, 0.19, 0.90, 1.83, -4.46, 0.67
29037, -0.38, 0.17, 0.89, 1.59, -4.58, 2.26
29141, -0.39, 0.18, 0.88, 2.87, -4.64, 0.43
29244, -0.39, 0.17, 0.90, 2.81, -3.66, -0.31
29349, -0.39, 0.19, 0.89, 1.83, -3.78, 0.06
29452, -0.41, 0.19, 0.87, 2.08, -4.27, -0.92
29556, -0.40, 0.18, 0.87, 3.78, -2.81, -4.03
29660, -0.42, 0.16, 0.87, 1.83, -2.75, 0.79
29764, -0.42, 0.15, 0.86, 1.10, 0.12, -0.85
29868, -0.39, 0.17, 0.89, 1.22, -2.20, -4.33
29972, -0.41, 0.17, 0.89, 4.46, -0.43, -5.00
30076, -0.44, 0.18, 0.87, 3.05, -1.83, -3.91
30180, -0.45, 0.17, 0.85, 3.42, -0.12, -5.00
30285, -0.44, 0.17, 0.87, 3.54, 0.73, -1.95
30389, -0.43, 0.15, 0.88, 2.56, 2.01, -2.50
30492, -0.44, 0.17, 0.87, 2.75, 0.67, -1.95
30596, -0.41, 0.16, 0.86, 2.38, -0.31, -3.05
30701, -0.44, 0.16, 0.84, 3.54, -2.99, -4.39
30804, -0.47, 0.20, 0.87, 5.43, -3.05, -2.75
30909, -0.42, 0.18, 0.86, 5.13, -1.40, -3.23
31013, -0.42, 0.17, 0.87, 3.23, 0.85, -1.16
31116, -0.45, 0.18, 0.88, 2.62, -1.65, -2.32
31220, -0.42, 0.20, 0.85, 5.68, -2.26, -5.92
31324, -0.44, 0.18, 0.88, 6.35, -5.55, -2.26
31429, -0.48, 0.18, 0.85, 3.78, -3.36, -0.43
31533, -0.47, 0.19, 0.84, 2.38, -3.30, -1.04
31636, -0.48, 0.19, 0.84, 2.50, -2.69, 0.49
31740, -0.48, 0.19, 0.84, 2.01, -2.75, -0.18
31844, -0.48, 0.18, 0.84, 2.08, -3.11, -1.22
31948, -0.47, 0.17, 0.85, 1.83, -3.23, -1.71
32053, -0.48, 0.18, 0.84, 2.69, -2.93, -1.22
32156, -0.47, 0.16, 0.84, 2.20, -3.42, -2.20
32261, -0.48, 0.17, 0.84, 2.14, -4.33, -1.34
32364, -0.47, 0.17, 0.84, 0.43, -4.70, -1.40
32468, -0.49, 0.18, 0.84, -2.08, -7.32, -2.14
32573, -0.47, 0.12, 0.87, -6.29, -13.18, -2.01
32677, -0.44, 0.16, 0.88, 2.87, -8.61, -0.98
32781, -0.43, 0.15, 0.87, -0.55, -10.44, -0.55
32885, -0.43, 0.17, 0.90, 4.76, -6.65, -2.38
32989, -0.42, 0.10, 0.89, -1.89, -6.71, -3.78
33093, -0.41, 0.11, 0.90, 0.43, -2.93, -0.67
33197, -0.45, 0.13, 0.87, -2.14, -2.87, 2.38
33301, -0.44, 0.12, 0.88, 6.84, 1.34, 2.08
33404, -0.44, 0.15, 0.88, 6.90, -0.61, 2.26
33508, -0.44, 0.17, 0.87, 4.76, -2.56, 0.43
33612, -0.43, 0.11, 0.87, -1.77, -5.68, -2.62
33716, -0.44, 0.12, 0.88, 2.87, -3.23, -0.67
33820, -0.43, 0.13, 0.87, 3.60, -3.78, 0.00
33924, -0.43, 0.13, 0.88, 1.40, -4.58, -1.34
34028, -0.43, 0.14, 0.88, 2.56, -3.36, -1.59
34132, -0.44, 0.14, 0.88, 3.30, -3.30, -0.73
34236, -0.43, 0.13, 0.88, 2.32, -4.09, -0.85
34340, -0.43, 0.13, 0.87, 1.83, -3.85, -1.34
34444, -0.43, 0.13, 0.88, 3.17, -3.36, -0.67
34548, -0.44, 0.14, 0.87, 3.42, -3.05, -0.55
34652, -0.43, 0.14, 0.87, 2.20, -3.91, -1.04
34756, -0.43, 0.13, 0.88, 2.44, -3.60, -0.92
34860, -0.43, 0.13, 0.88, 2.26, -3.91, -0.67
34964, -0.43, 0.13, 0.87, 3.17, -3.05, -0.49
35068, -0.44, 0.14, 0.88, 2.75, -3.36, -0.43
35172, -0.43, 0.14, 0.87, 2.56, -3.66, -0.37
35275, -0.44, 0.13, 0.87, 2.20, -3.72, -0.37
35380, -0.43, 0.13, 0.87, 2.75, -3.42, -0.49
35484, -0.44, 0.14, 0.87, 2.75, -3.48, -0.37
35588, -0.43, 0.14, 0.87, 2.62, -3.54, -0.43
35692, -0.43, 0.14, 0.87, 2.14, -3.85, -0.79
35796, -0.43, 0.14, 0.87, 2.50, -3.66, -0.73
35899, -0.43, 0.14, 0.87, 2.56, -3.60, -0.92
36003, -0.43, 0.13, 0.87, 2.38, -3.78, -1.04
36107, -0.43, 0.14, 0.87, 2.75, -3.48, -0.73
36211, -0.43, 0.13, 0.87, 2.75, -3.60, -0.92
36315, -0.43, 0.13, 0.88, 2.38, -3.60, -0.98
36419, -0.43, 0.13, 0.87, 2.20, -3.78, -1.28
36523, -0.44, 0.14, 0.88, 2.99, -3.17, -0.98
36627, -0.43, 0.14, 0.87, 3.42, -3.11, -0.55
36731, -0.44, 0.14, 0.87, 2.93, -3.48, -0.79
36835, -0.44, 0.13, 0.89, 2.75, -2.93, -0.67
