time,aX,aY,aZ,gX,gY,gZ
16830913,0.9946289,-0.11828613,-0.06958008,0.12207031,-2.8686523,-0.36621094
16830923,0.99487305,-0.11755371,-0.06933594,0.30517578,-2.8076172,-0.4272461
16830933,0.9954834,-0.11755371,-0.06896973,0.5493164,-2.8686523,-0.48828125
16830943,0.994751,-0.1184082,-0.07104492,0.61035156,-2.8076172,-0.4272461
16830953,0.9953613,-0.11816406,-0.072509766,0.6713867,-2.8686523,-0.48828125
16830963,0.99609375,-0.11584473,-0.072387695,0.6713867,-2.8686523,-0.5493164
16830973,0.99560547,-0.11755371,-0.07409668,0.6713867,-2.746582,-0.5493164
16830983,0.99450684,-0.11743164,-0.07446289,0.5493164,-2.6245117,-0.5493164
16830993,0.9951172,-0.11608887,-0.07531738,0.30517578,-2.5024414,-0.5493164
16831013,0.9951172,-0.11694336,-0.072753906,0.24414062,-2.319336,-0.4272461
16831033,0.99609375,-0.11694336,-0.07324219,0.24414062,-2.0751953,-0.36621094
16831043,0.9959717,-0.11853027,-0.072753906,0.30517578,-2.0751953,-0.36621094
16831053,0.9959717,-0.118652344,-0.07348633,0.30517578,-1.953125,-0.4272461
16831063,0.9967041,-0.118896484,-0.071777344,0.4272461,-1.953125,-0.48828125
16831073,0.9958496,-0.119018555,-0.072021484,0.4272461,-1.8310547,-0.48828125
16831083,0.9951172,-0.119506836,-0.07067871,0.4272461,-1.8310547,-0.5493164
16831093,0.99365234,-0.118896484,-0.06933594,0.5493164,-1.8920898,-0.5493164
16831103,0.9935303,-0.118652344,-0.06713867,0.79345703,-1.953125,-0.61035156
16831113,0.99450684,-0.11743164,-0.0657959,1.0375977,-1.953125,-0.6713867
16831123,0.9938965,-0.115600586,-0.068847656,0.9765625,-1.953125,-0.6713867
16831133,0.9951172,-0.11450195,-0.068847656,0.79345703,-1.953125,-0.6713867
16831143,0.9954834,-0.115234375,-0.068115234,0.61035156,-1.953125,-0.61035156
16831153,0.9963379,-0.11608887,-0.067871094,0.5493164,-1.953125,-0.5493164
16831163,0.99401855,-0.1184082,-0.06652832,0.5493164,-2.1972656,-0.5493164
16831183,0.9953613,-0.11791992,-0.06555176,0.7324219,-2.380371,-0.6713867
16831193,0.99450684,-0.11694336,-0.06774902,0.61035156,-2.380371,-0.7324219
16831203,0.99523926,-0.11621094,-0.06896973,0.24414062,-2.4414062,-0.6713867
16831213,0.994751,-0.115722656,-0.068725586,0.0,-2.5024414,-0.6713867
16831223,0.9942627,-0.115356445,-0.06945801,0.0,-2.5634766,-0.61035156
16831233,0.9941406,-0.11645508,-0.067871094,0.061035156,-2.5024414,-0.5493164
16831243,0.9949951,-0.11608887,-0.06726074,0.18310547,-2.6245117,-0.61035156
16831253,0.99438477,-0.1171875,-0.06762695,0.30517578,-2.6245117,-0.48828125
16831263,0.9946289,-0.11816406,-0.068725586,0.4272461,-2.6245117,-0.5493164
16831273,0.99572754,-0.118896484,-0.06958008,0.36621094,-2.6245117,-0.5493164
16831283,0.99768066,-0.11462402,-0.07116699,0.24414062,-2.5024414,-0.6713867
16831293,0.994751,-0.11364746,-0.07019043,-0.061035156,-2.380371,-0.7324219
16831303,0.9923096,-0.11584473,-0.071899414,-0.12207031,-2.319336,-0.48828125
16831313,0.99560547,-0.11791992,-0.0715332,-0.18310547,-2.4414062,-0.48828125
16831323,0.9962158,-0.11706543,-0.068847656,-0.061035156,-2.380371,-0.48828125
16831343,0.9962158,-0.12133789,-0.067871094,0.91552734,-2.5634766,-0.61035156
16831363,0.99279785,-0.11645508,-0.068481445,1.159668,-2.4414062,-0.7324219
16831373,0.993042,-0.11706543,-0.06958008,0.9765625,-2.6245117,-0.7324219
16831383,0.9963379,-0.1159668,-0.06958008,0.91552734,-2.5634766,-0.79345703
16831393,0.99401855,-0.115356445,-0.06774902,0.6713867,-2.5024414,-0.79345703
16831403,0.9920654,-0.11645508,-0.06738281,0.6713867,-2.5024414,-0.7324219
16831413,0.9937744,-0.11828613,-0.0690918,0.5493164,-2.5634766,-0.8544922
16831423,0.9962158,-0.11608887,-0.0670166,0.5493164,-2.5634766,-0.79345703
16831433,0.9954834,-0.11462402,-0.068481445,0.61035156,-2.6245117,-0.6713867
16831443,0.99365234,-0.11767578,-0.06774902,0.5493164,-2.6855469,-0.61035156
16831453,0.99560547,-0.118652344,-0.0690918,0.61035156,-2.6245117,-0.61035156
16831463,0.99694824,-0.11633301,-0.067993164,0.48828125,-2.6245117,-0.7324219
16831473,0.9954834,-0.11657715,-0.068603516,0.24414062,-2.5634766,-0.7324219
16831483,0.9953613,-0.11767578,-0.07299805,0.061035156,-2.5024414,-0.6713867
16831503,0.99609375,-0.114746094,-0.07165527,-0.18310547,-2.2583008,-0.61035156
16831523,0.99487305,-0.11657715,-0.0690918,0.4272461,-2.319336,-0.48828125
16831533,0.9953613,-0.1159668,-0.068115234,0.61035156,-2.380371,-0.48828125
16831543,0.99645996,-0.11608887,-0.07006836,0.6713867,-2.319336,-0.4272461
16831553,0.99694824,-0.11767578,-0.072387695,0.61035156,-2.2583008,-0.48828125
16831563,0.9963379,-0.11706543,-0.07409668,0.4272461,-2.1362305,-0.5493164
16831573,0.9970703,-0.11633301,-0.06933594,0.18310547,-2.1362305,-0.48828125
16831583,0.99279785,-0.11657715,-0.06933594,0.12207031,-2.0141602,-0.48828125
16831593,0.994751,-0.119262695,-0.06896973,0.18310547,-2.0751953,-0.5493164
16831603,0.99450684,-0.119506836,-0.06689453,0.36621094,-2.0751953,-0.48828125
16831613,0.9949951,-0.118652344,-0.064941406,0.6713867,-2.1362305,-0.48828125
16831623,0.99450684,-0.11730957,-0.06652832,0.91552734,-2.1972656,-0.5493164
16831633,0.9959717,-0.1171875,-0.06896973,0.9765625,-2.2583008,-0.6713867
16831643,0.99609375,-0.11584473,-0.06921387,0.8544922,-2.2583008,-0.61035156
16831653,0.994751,-0.11645508,-0.067993164,0.6713867,-2.319336,-0.5493164
16831673,0.99438477,-0.11633301,-0.064819336,0.36621094,-2.4414062,-0.48828125
16831693,0.9938965,-0.11767578,-0.06530762,0.30517578,-2.5634766,-0.5493164
16831703,0.99438477,-0.11682129,-0.064697266,0.30517578,-2.6855469,-0.48828125
16831713,0.9949951,-0.11706543,-0.06506348,0.24414062,-2.8686523,-0.4272461
16831723,0.9946289,-0.11755371,-0.06665039,0.30517578,-2.8076172,-0.48828125
16831733,0.9949951,-0.11816406,-0.06970215,0.30517578,-2.8076172,-0.48828125
16831743,0.9949951,-0.11743164,-0.071899414,0.30517578,-2.8686523,-0.61035156
16831753,0.9959717,-0.1171875,-0.072143555,0.24414062,-2.8686523,-0.48828125
16831763,0.9962158,-0.11804199,-0.071899414,0.18310547,-2.6855469,-0.61035156
16831773,0.9951172,-0.11743164,-0.07055664,0.24414062,-2.6245117,-0.61035156
16831783,0.99316406,-0.11657715,-0.06994629,0.24414062,-2.5634766,-0.5493164
16831793,0.99438477,-0.119628906,-0.06958008,0.30517578,-2.6245117,-0.48828125
16831803,0.99658203,-0.11791992,-0.071899414,0.36621094,-2.5634766,-0.61035156
16831813,0.9958496,-0.114868164,-0.07006836,0.4272461,-2.5024414,-0.48828125
16831833,0.9949951,-0.11853027,-0.07165527,0.6713867,-2.380371,-0.61035156
16831853,0.9925537,-0.118774414,-0.072387695,0.61035156,-2.2583008,-0.61035156
16831863,0.9934082,-0.119018555,-0.071777344,0.5493164,-2.1972656,-0.6713867
16831873,0.99645996,-0.11633301,-0.07080078,0.4272461,-2.1362305,-0.6713867
16831883,0.9938965,-0.11633301,-0.0703125,0.36621094,-2.0751953,-0.6713867
16831893,0.9938965,-0.119262695,-0.07092285,0.36621094,-2.1362305,-0.6713867
16831903,0.9951172,-0.118896484,-0.06921387,0.48828125,-2.1362305,-0.6713867
16831913,0.99572754,-0.11621094,-0.06738281,0.6713867,-2.0751953,-0.7324219
16831923,0.99572754,-0.11621094,-0.06616211,0.79345703,-2.1362305,-0.6713867
16831933,0.9954834,-0.11608887,-0.06762695,0.79345703,-2.1972656,-0.61035156
16831943,0.99572754,-0.115112305,-0.06774902,0.79345703,-2.1362305,-0.6713867
16831953,0.9953613,-0.114746094,-0.067871094,0.6713867,-2.1972656,-0.61035156
16831963,0.99365234,-0.115356445,-0.06652832,0.5493164,-2.1362305,-0.48828125
16831973,0.9937744,-0.115112305,-0.06628418,0.36621094,-2.319336,-0.48828125
16831983,0.99523926,-0.11425781,-0.06555176,0.18310547,-2.4414062,-0.36621094
16832003,0.9941406,-0.12072754,-0.06628418,0.18310547,-2.6855469,-0.30517578
16832023,0.9951172,-0.12060547,-0.07019043,0.12207031,-2.6855469,-0.48828125
16832033,0.9946289,-0.12036133,-0.071777344,0.12207031,-2.6855469,-0.48828125
16832043,0.9935303,-0.1204834,-0.07055664,0.18310547,-2.746582,-0.6713867
16832053,0.99450684,-0.11999512,-0.07043457,0.30517578,-2.746582,-0.7324219
16832063,0.99438477,-0.119628906,-0.067993164,0.5493164,-2.8076172,-0.8544922
16832073,0.9934082,-0.12072754,-0.067993164,0.79345703,-2.8076172,-0.79345703
16832083,0.9935303,-0.119506836,-0.06616211,0.91552734,-2.8686523,-0.79345703
16832093,0.99560547,-0.11657715,-0.06933594,1.0986328,-2.8686523,-0.91552734
16832103,0.99645996,-0.11425781,-0.071777344,1.0986328,-2.746582,-0.9765625
16832113,0.99523926,-0.11254883,-0.07470703,0.7324219,-2.5634766,-0.8544922
16832123,0.9958496,-0.11279297,-0.07556152,0.18310547,-2.5024414,-0.79345703
16832133,0.9953613,-0.11401367,-0.075927734,-0.12207031,-2.4414062,-0.6713867
16832143,0.99438477,-0.11694336,-0.071899414,-0.24414062,-2.2583008,-0.5493164
16832163,0.99523926,-0.11828613,-0.07165527,0.0,-2.1362305,-0.61035156
16832183,0.9937744,-0.11804199,-0.06994629,0.6713867,-2.1972656,-0.61035156
16832193,0.99560547,-0.11791992,-0.07006836,0.79345703,-2.1362305,-0.7324219
16832203,0.99523926,-0.1184082,-0.06774902,1.0375977,-2.1362305,-0.7324219
16832213,0.99523926,-0.11682129,-0.068603516,1.2207031,-2.1972656,-0.7324219
16832223,0.9937744,-0.118652344,-0.06896973,1.2207031,-2.1972656,-0.7324219
16832233,0.99450684,-0.11657715,-0.06945801,0.9765625,-2.319336,-0.6713867
16832243,0.99572754,-0.114746094,-0.06640625,0.79345703,-2.319336,-0.7324219
16832253,0.994751,-0.1126709,-0.06640625,0.61035156,-2.2583008,-0.6713867
16832263,0.9929199,-0.11437988,-0.07019043,0.36621094,-2.319336,-0.48828125
16832273,0.9954834,-0.115478516,-0.072021484,0.0,-2.319336,-0.48828125
16832283,0.99645996,-0.11682129,-0.068725586,-0.061035156,-2.380371,-0.4272461
16832293,0.9937744,-0.11706543,-0.06689453,0.061035156,-2.380371,-0.36621094
16832303,0.99121094,-0.118896484,-0.06689453,0.36621094,-2.5024414,-0.36621094
16832313,0.9958496,-0.12036133,-0.06677246,0.7324219,-2.5024414,-0.5493164
16832333,0.99450684,-0.11706543,-0.07336426,0.18310547,-2.5024414,-0.5493164
16832343,0.99694824,-0.114868164,-0.07385254,-0.12207031,-2.4414062,-0.48828125
16832353,0.9953613,-0.11437988,-0.07312012,-0.4272461,-2.4414062,-0.36621094
16832363,0.9921875,-0.11779785,-0.07324219,-0.48828125,-2.380371,-0.4272461
16832373,0.9925537,-0.12072754,-0.07055664,-0.24414062,-2.380371,-0.36621094
16832383,0.9953613,-0.12182617,-0.06982422,0.24414062,-2.380371,-0.48828125
16832393,0.99523926,-0.119506836,-0.06933594,0.48828125,-2.319336,-0.5493164
16832403,0.993042,-0.118652344,-0.07067871,0.7324219,-2.319336,-0.5493164
16832413,0.99560547,-0.119018555,-0.07373047,0.79345703,-2.319336,-0.61035156
16832423,0.99731445,-0.11730957,-0.07421875,0.7324219,-2.1972656,-0.7324219
16832433,0.9951172,-0.11584473,-0.07141113,0.61035156,-2.1972656,-0.6713867
16832443,0.9935303,-0.1184082,-0.071777344,0.5493164,-2.1362305,-0.61035156
16832453,0.99487305,-0.11743164,-0.07165527,0.61035156,-2.1362305,-0.61035156
16832463,0.99523926,-0.115722656,-0.07043457,0.48828125,-2.0141602,-0.61035156
16832473,0.9946289,-0.115234375,-0.06982422,0.36621094,-2.0751953,-0.5493164
16832493,0.99572754,-0.11584473,-0.07043457,0.24414062,-1.8920898,-0.61035156
16832513,0.9938965,-0.119262695,-0.06945801,0.4272461,-2.0751953,-0.48828125
16832523,0.99523926,-0.11987305,-0.068847656,0.61035156,-2.0141602,-0.5493164
16832533,0.99572754,-0.118896484,-0.06726074,0.61035156,-2.0751953,-0.61035156
16832543,0.99243164,-0.118652344,-0.0657959,0.61035156,-2.1362305,-0.5493164
16832553,0.99365234,-0.119262695,-0.06689453,0.6713867,-2.319336,-0.61035156
16832563,0.99523926,-0.11816406,-0.064575195,0.6713867,-2.319336,-0.5493164
16832573,0.9951172,-0.115478516,-0.064697266,0.6713867,-2.380371,-0.61035156
16832583,0.994751,-0.115112305,-0.06726074,0.6713867,-2.5024414,-0.61035156
16832593,0.99438477,-0.11608887,-0.068603516,0.48828125,-2.5024414,-0.6713867
16832603,0.99450684,-0.115356445,-0.07067871,0.30517578,-2.5024414,-0.5493164
16832613,0.9942627,-0.11608887,-0.068115234,0.30517578,-2.6245117,-0.4272461
16832623,0.9946289,-0.11755371,-0.068481445,0.36621094,-2.6245117,-0.36621094
16832633,0.99523926,-0.11730957,-0.067871094,0.24414062,-2.746582,-0.36621094
16832653,0.9959717,-0.11669922,-0.06665039,0.36621094,-2.746582,-0.4272461
16832673,0.9971924,-0.119506836,-0.06982422,0.061035156,-2.6855469,-0.4272461
16832683,0.9953613,-0.118652344,-0.07409668,-0.061035156,-2.6245117,-0.5493164
16832693,0.9941406,-0.12036133,-0.07348633,-0.061035156,-2.6855469,-0.48828125
16832703,0.99487305,-0.12097168,-0.072387695,0.18310547,-2.6245117,-0.5493164
16832713,0.9951172,-0.119018555,-0.07055664,0.30517578,-2.6245117,-0.61035156
16832723,0.9937744,-0.12023926,-0.07006836,0.5493164,-2.6245117,-0.6713867
16832733,0.9946289,-0.12133789,-0.07165527,0.6713867,-2.6245117,-0.7324219
16832743,0.9968262,-0.1204834,-0.072021484,0.7324219,-2.6245117,-0.79345703
16832753,0.9949951,-0.119262695,-0.07092285,0.7324219,-2.5024414,-0.8544922
16832763,0.99438477,-0.119140625,-0.071899414,0.7324219,-2.380371,-0.91552734
16832773,0.99609375,-0.119018555,-0.07104492,0.6713867,-2.4414062,-0.9765625
16832783,0.99523926,-0.115356445,-0.068359375,0.79345703,-2.319336,-0.9765625
16832793,0.99438477,-0.1138916,-0.07006836,0.6713867,-2.1972656,-0.91552734
16832803,0.99316406,-0.11645508,-0.06921387,0.7324219,-2.319336,-0.8544922
16832823,0.99401855,-0.11584473,-0.06738281,0.61035156,-2.319336,-0.6713867
16832843,0.99694824,-0.11413574,-0.07043457,0.36621094,-2.2583008,-0.6713867
16832853,0.99560547,-0.1126709,-0.06994629,0.18310547,-2.2583008,-0.6713867
16832863,0.99365234,-0.11804199,-0.07006836,0.0,-2.1972656,-0.61035156
16832873,0.99450684,-0.119506836,-0.068237305,0.061035156,-2.2583008,-0.5493164
16832883,0.9954834,-0.118774414,-0.06677246,0.18310547,-2.319336,-0.5493164
16832893,0.9935303,-0.11853027,-0.06518555,0.5493164,-2.319336,-0.5493164
16832903,0.99316406,-0.11975098,-0.06591797,0.7324219,-2.4414062,-0.5493164
16832913,0.99560547,-0.118652344,-0.067871094,0.91552734,-2.5634766,-0.6713867
16832923,0.99645996,-0.115722656,-0.068115234,0.8544922,-2.5634766,-0.6713867
16832933,0.99438477,-0.11694336,-0.0703125,0.5493164,-2.6245117,-0.61035156
16832943,0.9951172,-0.11669922,-0.07019043,0.30517578,-2.5024414,-0.61035156
16832953,0.9953613,-0.11730957,-0.06982422,0.12207031,-2.4414062,-0.6713867
16832963,0.99523926,-0.11730957,-0.06933594,0.12207031,-2.5024414,-0.61035156
16832983,0.9937744,-0.119262695,-0.06896973,0.4272461,-2.6245117,-0.61035156
16833003,0.9953613,-0.11853027,-0.067871094,0.79345703,-2.6245117,-0.61035156
16833013,0.99560547,-0.11730957,-0.06994629,0.7324219,-2.6245117,-0.61035156
16833023,0.9959717,-0.11743164,-0.07067871,0.5493164,-2.5024414,-0.61035156
16833033,0.9954834,-0.11376953,-0.07165527,0.4272461,-2.380371,-0.61035156
16833043,0.99450684,-0.11608887,-0.072509766,0.18310547,-2.319336,-0.61035156
16833053,0.99523926,-0.11743164,-0.071899414,0.18310547,-2.2583008,-0.48828125
16833063,0.9946289,-0.11779785,-0.07067871,0.18310547,-2.2583008,-0.5493164
16833073,0.99523926,-0.11584473,-0.06896973,0.18310547,-2.2583008,-0.5493164
16833083,0.9949951,-0.1171875,-0.06896973,0.36621094,-2.2583008,-0.48828125
16833093,0.9946289,-0.119018555,-0.068725586,0.5493164,-2.319336,-0.4272461
16833103,0.9959717,-0.11987305,-0.06970215,0.5493164,-2.1972656,-0.48828125
16833113,0.9959717,-0.118652344,-0.06945801,0.48828125,-2.1972656,-0.5493164
16833123,0.9951172,-0.119018555,-0.07067871,0.48828125,-2.1362305,-0.48828125
16833133,0.9942627,-0.119140625,-0.06958008,0.4272461,-2.0751953,-0.61035156
16833153,0.9918213,-0.11694336,-0.06689453,0.5493164,-2.1362305,-0.61035156
16833173,0.9938965,-0.11853027,-0.06518555,0.8544922,-2.380371,-0.61035156
16833183,0.99658203,-0.11816406,-0.06652832,0.8544922,-2.4414062,-0.6713867
16833193,0.994751,-0.119628906,-0.06518555,0.8544922,-2.5024414,-0.7324219
16833203,0.99731445,-0.11755371,-0.06750488,0.7324219,-2.380371,-0.79345703
16833213,0.9954834,-0.1159668,-0.06726074,0.48828125,-2.4414062,-0.7324219
16833223,0.9949951,-0.115478516,-0.067871094,0.36621094,-2.5024414,-0.7324219
16833233,0.99401855,-0.11645508,-0.0657959,0.30517578,-2.6245117,-0.6713867
16833243,0.99487305,-0.11669922,-0.06677246,0.30517578,-2.6245117,-0.61035156
16833253,0.9937744,-0.11779785,-0.06616211,0.24414062,-2.746582,-0.61035156
16833263,0.9937744,-0.11657715,-0.06542969,0.30517578,-2.746582,-0.5493164
16833273,0.9958496,-0.1159668,-0.068481445,0.36621094,-2.8686523,-0.5493164
16833283,0.99609375,-0.114746094,-0.07043457,0.36621094,-2.8076172,-0.61035156
16833293,0.99645996,-0.11450195,-0.0715332,0.18310547,-2.8076172,-0.4272461
16833313,0.9959717,-0.11816406,-0.07165527,0.0,-2.6855469,-0.4272461
16833333,0.99438477,-0.12023926,-0.07080078,0.061035156,-2.5634766,-0.5493164
16833343,0.9946289,-0.119506836,-0.07104492,0.12207031,-2.6245117,-0.5493164
16833353,0.9951172,-0.119506836,-0.07080078,0.36621094,-2.6245117,-0.61035156
16833363,0.9959717,-0.12023926,-0.07104492,0.48828125,-2.5024414,-0.61035156
16833373,0.9946289,-0.119384766,-0.0736084,0.5493164,-2.5024414,-0.61035156
16833383,0.994751,-0.11975098,-0.07324219,0.61035156,-2.319336,-0.7324219
16833393,0.99560547,-0.12036133,-0.07373047,0.5493164,-2.2583008,-0.79345703
16833403,0.99523926,-0.119628906,-0.07324219,0.61035156,-2.0751953,-0.8544922
16833413,0.99450684,-0.11767578,-0.07128906,0.79345703,-1.953125,-0.79345703
16833423,0.9951172,-0.11669922,-0.071899414,0.79345703,-1.8920898,-0.8544922
16833433,0.99560547,-0.11401367,-0.071899414,0.61035156,-1.8920898,-0.8544922
16833443,0.99487305,-0.115722656,-0.07006836,0.48828125,-1.7700195,-0.8544922
16833453,0.9953613,-0.11633301,-0.07006836,0.36621094,-1.7700195,-0.79345703
16833463,0.9959717,-0.1159668,-0.06896973,0.12207031,-1.6479492,-0.7324219
16833483,0.9937744,-0.11657715,-0.06713867,0.30517578,-1.6479492,-0.5493164
16833503,0.9937744,-0.11669922,-0.06225586,0.61035156,-1.7700195,-0.61035156
16833513,0.99365234,-0.11791992,-0.06347656,0.6713867,-1.953125,-0.5493164
16833523,0.9946289,-0.115600586,-0.06286621,0.7324219,-2.1362305,-0.5493164
16833533,0.9941406,-0.1159668,-0.063964844,0.48828125,-2.1362305,-0.48828125
16833543,0.9941406,-0.11645508,-0.064331055,0.36621094,-2.1362305,-0.5493164
16833553,0.99438477,-0.11682129,-0.06359863,0.30517578,-2.2583008,-0.4272461
16833563,0.99450684,-0.11743164,-0.06323242,0.4272461,-2.380371,-0.48828125
16833573,0.99560547,-0.11791992,-0.06359863,0.48828125,-2.5024414,-0.48828125
16833583,0.993042,-0.11779785,-0.06689453,0.48828125,-2.5024414,-0.48828125
16833593,0.99572754,-0.11804199,-0.067871094,0.36621094,-2.6245117,-0.5493164
16833603,0.99450684,-0.119140625,-0.06591797,0.36621094,-2.6855469,-0.5493164
16833613,0.99523926,-0.118896484,-0.064208984,0.4272461,-2.6245117,-0.5493164
16833623,0.9934082,-0.11804199,-0.064697266,0.61035156,-2.8076172,-0.61035156
16833643,0.9953613,-0.11450195,-0.0703125,0.5493164,-2.8686523,-0.61035156
16833663,0.99487305,-0.115112305,-0.07495117,-0.36621094,-2.6245117,-0.48828125
16833673,0.9946289,-0.11804199,-0.072265625,-0.4272461,-2.6245117,-0.4272461
16833683,0.99401855,-0.12121582,-0.06933594,-0.30517578,-2.4414062,-0.36621094
16833693,0.99279785,-0.12158203,-0.0657959,0.0,-2.5024414,-0.36621094
16833703,0.99438477,-0.12243652,-0.06713867,0.48828125,-2.5024414,-0.4272461
16833713,0.9953613,-0.1217041,-0.06567383,0.9765625,-2.6855469,-0.5493164
16833723,0.9967041,-0.11987305,-0.06628418,1.2817383,-2.6245117,-0.6713867
16833733,0.9974365,-0.11682129,-0.06921387,1.3427734,-2.6855469,-0.7324219
16833743,0.9953613,-0.115722656,-0.07092285,0.9765625,-2.5024414,-0.8544922
16833753,0.9959717,-0.11633301,-0.07128906,0.6713867,-2.4414062,-0.79345703
16833763,0.9949951,-0.1159668,-0.07043457,0.61035156,-2.380371,-0.7324219
16833773,0.9953613,-0.11682129,-0.068603516,0.48828125,-2.380371,-0.7324219
16833783,0.99438477,-0.11706543,-0.0657959,0.5493164,-2.4414062,-0.7324219
16833793,0.9941406,-0.11645508,-0.06518555,0.79345703,-2.6245117,-0.6713867
16833813,0.99450684,-0.1171875,-0.06677246,0.6713867,-2.6245117,-0.5493164
16833823,0.99560547,-0.1171875,-0.067871094,0.48828125,-2.5634766,-0.5493164
16833833,0.9954834,-0.11706543,-0.06982422,0.30517578,-2.6245117,-0.61035156
16833843,0.99450684,-0.11657715,-0.07165527,-0.061035156,-2.5024414,-0.5493164
16833853,0.994751,-0.11682129,-0.0703125,-0.12207031,-2.4414062,-0.61035156
16833863,0.99365234,-0.11730957,-0.06982422,-0.12207031,-2.380371,-0.6713867
16833873,0.994751,-0.115722656,-0.067871094,0.0,-2.4414062,-0.61035156
16833883,0.9959717,-0.1159668,-0.068115234,0.12207031,-2.4414062,-0.48828125
16833893,0.99523926,-0.11657715,-0.068237305,0.18310547,-2.4414062,-0.48828125
16833903,0.9949951,-0.11767578,-0.06982422,0.24414062,-2.4414062,-0.4272461
16833913,0.99572754,-0.119384766,-0.06774902,0.48828125,-2.5024414,-0.48828125
16833923,0.9958496,-0.119262695,-0.067871094,0.5493164,-2.4414062,-0.5493164
16833933,0.99560547,-0.11779785,-0.06994629,0.5493164,-2.380371,-0.48828125
16833943,0.9954834,-0.11743164,-0.07067871,0.4272461,-2.319336,-0.61035156
16833953,0.99560547,-0.11694336,-0.06982422,0.4272461,-2.1972656,-0.48828125
16833973,0.99523926,-0.118652344,-0.067993164,0.30517578,-2.1972656,-0.5493164
16833993,0.9958496,-0.11853027,-0.068847656,0.5493164,-2.1972656,-0.5493164
16834003,0.9946289,-0.119506836,-0.06530762,0.79345703,-2.2583008,-0.6713867
16834013,0.99438477,-0.11987305,-0.06665039,0.9765625,-2.319336,-0.6713867
16834023,0.99523926,-0.11791992,-0.06628418,0.9765625,-2.2583008,-0.6713867
16834033,0.9959717,-0.115600586,-0.0690918,0.79345703,-2.319336,-0.7324219
16834043,0.9946289,-0.11584473,-0.068725586,0.36621094,-2.1362305,-0.79345703
16834053,0.9937744,-0.115234375,-0.068847656,0.12207031,-2.2583008,-0.7324219
16834063,0.9937744,-0.11779785,-0.068359375,0.18310547,-2.1972656,-0.6713867
16834073,0.99438477,-0.119018555,-0.06555176,0.18310547,-2.319336,-0.61035156
16834083,0.9941406,-0.118774414,-0.064941406,0.30517578,-2.319336,-0.7324219
16834093,0.994751,-0.11791992,-0.064331055,0.5493164,-2.4414062,-0.6713867
16834103,0.99401855,-0.11816406,-0.06542969,0.79345703,-2.4414062,-0.7324219
16834113,0.99487305,-0.11767578,-0.06567383,0.91552734,-2.5024414,-0.6713867
16834133,0.99523926,-0.114990234,-0.07067871,0.24414062,-2.5024414,-0.6713867
16834153,0.9938965,-0.11682129,-0.06604004,0.0,-2.380371,-0.5493164
16834163,0.99438477,-0.11779785,-0.064453125,0.24414062,-2.4414062,-0.48828125
16834173,0.9942627,-0.11816406,-0.06567383,0.4272461,-2.5024414,-0.4272461
16834183,0.9954834,-0.118652344,-0.06542969,0.7324219,-2.5024414,-0.5493164
16834193,0.99572754,-0.11743164,-0.06774902,0.8544922,-2.5024414,-0.61035156
16834203,0.99609375,-0.11804199,-0.068115234,0.6713867,-2.5634766,-0.6713867
16834213,0.9954834,-0.11633301,-0.06713867,0.7324219,-2.5634766,-0.61035156
16834223,0.9941406,-0.11706543,-0.06762695,0.6713867,-2.5024414,-0.48828125
16834233,0.99450684,-0.11657715,-0.06616211,0.5493164,-2.5634766,-0.48828125
16834243,0.9937744,-0.11694336,-0.06628418,0.5493164,-2.5634766,-0.5493164
16834253,0.99487305,-0.11730957,-0.06604004,0.4272461,-2.6245117,-0.5493164
16834263,0.9941406,-0.11706543,-0.068847656,0.18310547,-2.5024414,-0.5493164
16834273,0.9951172,-0.11767578,-0.06994629,0.0,-2.5024414,-0.48828125
16834283,0.9959717,-0.11743164,-0.0690918,0.12207031,-2.5634766,-0.5493164
16834303,0.994751,-0.12011719,-0.068237305,0.61035156,-2.5634766,-0.5493164
16834323,0.9951172,-0.11706543,-0.06738281,0.79345703,-2.4414062,-0.5493164
16834333,0.9954834,-0.11694336,-0.06958008,0.7324219,-2.380371,-0.61035156
16834343,0.9954834,-0.115356445,-0.07019043,0.24414062,-2.319336,-0.6713867
16834353,0.9949951,-0.114746094,-0.06958008,0.061035156,-2.319336,-0.61035156
16834363,0.994751,-0.11657715,-0.067993164,0.061035156,-2.319336,-0.48828125
16834373,0.9946289,-0.118652344,-0.068603516,0.18310547,-2.4414062,-0.48828125
16834383,0.99438477,-0.12072754,-0.0670166,0.24414062,-2.380371,-0.4272461
16834393,0.9946289,-0.12084961,-0.064331055,0.5493164,-2.4414062,-0.5493164
16834403,0.99450684,-0.12084961,-0.06555176,1.0375977,-2.4414062,-0.5493164
16834413,0.99560547,-0.118774414,-0.06628418,1.159668,-2.5024414,-0.61035156
16834423,0.9954834,-0.11669922,-0.06713867,0.9765625,-2.5024414,-0.6713867
16834433,0.9953613,-0.1159668,-0.06604004,0.8544922,-2.5024414,-0.6713867
16834443,0.9937744,-0.115722656,-0.06750488,0.61035156,-2.4414062,-0.6713867
16834463,0.99523926,-0.11694336,-0.06555176,0.48828125,-2.5634766,-0.61035156
16834483,0.99560547,-0.115112305,-0.06665039,0.48828125,-2.6245117,-0.5493164
16834493,0.9968262,-0.11462402,-0.06921387,0.4272461,-2.5634766,-0.48828125
16834503,0.9963379,-0.115234375,-0.07067871,0.24414062,-2.5634766,-0.5493164
16834513,0.99523926,-0.11633301,-0.07006836,-0.061035156,-2.4414062,-0.48828125
16834523,0.9954834,-0.11743164,-0.07019043,-0.24414062,-2.380371,-0.48828125
16834533,0.9941406,-0.11975098,-0.06933594,-0.24414062,-2.380371,-0.48828125
16834543,0.99523926,-0.12182617,-0.0670166,-0.18310547,-2.1972656,-0.48828125
16834553,0.994751,-0.12207031,-0.06530762,0.12207031,-2.380371,-0.5493164
16834563,0.99450684,-0.12097168,-0.064331055,0.6713867,-2.4414062,-0.6713867
16834573,0.9946289,-0.11804199,-0.064575195,1.0375977,-2.5024414,-0.79345703
16834583,0.994751,-0.1159668,-0.0657959,1.2207031,-2.5024414,-0.79345703
16834593,0.9954834,-0.11364746,-0.06726074,1.2207031,-2.5634766,-0.79345703
16834603,0.9963379,-0.11462402,-0.067871094,1.0986328,-2.4414062,-0.6713867
16834613,0.99523926,-0.114990234,-0.07092285,0.6713867,-2.319336,-0.5493164
16834633,0.9954834,-0.11645508,-0.068237305,-0.061035156,-2.319336,-0.5493164
16834653,0.9954834,-0.11657715,-0.064697266,0.36621094,-2.380371,-0.48828125
16834663,0.994751,-0.11682129,-0.064086914,0.48828125,-2.319336,-0.4272461
16834673,0.9938965,-0.11730957,-0.06652832,0.61035156,-2.4414062,-0.48828125
16834683,0.99450684,-0.118774414,-0.06665039,0.61035156,-2.5024414,-0.48828125
16834693,0.9959717,-0.119018555,-0.06652832,0.4272461,-2.4414062,-0.4272461
16834703,0.99450684,-0.119018555,-0.068237305,0.24414062,-2.380371,-0.4272461
16834713,0.99487305,-0.11767578,-0.068603516,0.061035156,-2.380371,-0.61035156
16834723,0.99523926,-0.11669922,-0.068725586,0.0,-2.319336,-0.61035156
16834733,0.994751,-0.11816406,-0.068359375,-0.061035156,-2.4414062,-0.61035156
16834743,0.9949951,-0.11816406,-0.068481445,0.061035156,-2.319336,-0.61035156
16834753,0.9946289,-0.119018555,-0.0670166,0.30517578,-2.4414062,-0.61035156
16834763,0.99487305,-0.11999512,-0.067993164,0.48828125,-2.380371,-0.6713867
16834773,0.99487305,-0.12023926,-0.06762695,0.7324219,-2.380371,-0.7324219
16834793,0.99560547,-0.1171875,-0.068725586,1.0375977,-2.380371,-0.79345703
16834813,0.99609375,-0.11462402,-0.06933594,0.61035156,-2.1362305,-0.8544922
16834823,0.99523926,-0.11401367,-0.06896973,0.36621094,-2.1362305,-0.7324219
16834833,0.9941406,-0.11413574,-0.06652832,0.30517578,-2.1972656,-0.6713867
16834843,0.994751,-0.115600586,-0.06640625,0.30517578,-2.1972656,-0.61035156
16834853,0.9954834,-0.1171875,-0.06689453,0.24414062,-2.2583008,-0.5493164
16834863,0.9938965,-0.11755371,-0.06591797,0.36621094,-2.380371,-0.48828125
16834873,0.9951172,-0.11608887,-0.064819336,0.4272461,-2.380371,-0.4272461
16834910,0.99572754,-0.11682129,-0.06762695,0.30517578,-2.2583008,-0.5493164
16834919,0.994751,-0.1184082,-0.06616211,0.24414062,-2.2583008,-0.61035156
16834929,0.99438477,-0.1171875,-0.06567383,0.24414062,-2.380371,-0.5493164
16834939,0.9935303,-0.1184082,-0.06530762,0.48828125,-2.4414062,-0.5493164
16834949,0.99401855,-0.11767578,-0.06311035,0.7324219,-2.6245117,-0.48828125
16834959,0.99365234,-0.11816406,-0.06384277,0.8544922,-2.6855469,-0.61035156
16834969,0.9942627,-0.11682129,-0.0637207,1.0375977,-2.746582,-0.61035156
16834979,0.99523926,-0.11791992,-0.06542969,1.2207031,-2.8076172,-0.61035156
16834989,0.9953613,-0.11682129,-0.06567383,1.0375977,-2.8686523,-0.6713867
16834999,0.9963379,-0.11450195,-0.067871094,0.79345703,-2.9296875,-0.61035156
16835009,0.99487305,-0.11450195,-0.068481445,0.061035156,-2.6855469,-0.61035156
16835029,0.9953613,-0.119384766,-0.068725586,-0.12207031,-2.8076172,-0.48828125
16835039,0.9962158,-0.118774414,-0.06713867,-0.061035156,-2.746582,-0.48828125
16835049,0.99523926,-0.119262695,-0.06896973,0.24414062,-2.6855469,-0.5493164
16835059,0.9949951,-0.119140625,-0.06958008,0.48828125,-2.6855469,-0.61035156
16835069,0.9980469,-0.119018555,-0.071899414,0.61035156,-2.6245117,-0.61035156
16835079,0.9968262,-0.115478516,-0.07385254,0.36621094,-2.5024414,-0.6713867
16835089,0.9946289,-0.1159668,-0.07165527,0.18310547,-2.4414062,-0.61035156
16835099,0.9946289,-0.11767578,-0.07409668,0.18310547,-2.380371,-0.5493164
16835109,0.9968262,-0.11767578,-0.06994629,0.12207031,-2.1972656,-0.61035156
16835119,0.99523926,-0.11743164,-0.06970215,-0.061035156,-2.1362305,-0.5493164
16835129,0.9942627,-0.119628906,-0.06921387,0.12207031,-2.0751953,-0.61035156
16835139,0.9946289,-0.12036133,-0.067871094,0.36621094,-2.1362305,-0.61035156
16835149,0.9959717,-0.11779785,-0.06677246,0.6713867,-2.1972656,-0.61035156
16835159,0.9963379,-0.11767578,-0.067871094,0.79345703,-2.1362305,-0.6713867
16835169,0.99487305,-0.118896484,-0.06738281,0.91552734,-2.0751953,-0.6713867
16835189,0.9949951,-0.115722656,-0.06665039,0.8544922,-2.1972656,-0.61035156
16835209,0.9958496,-0.1159668,-0.06542969,0.48828125,-2.1362305,-0.61035156
16835219,0.99560547,-0.115356445,-0.064697266,0.4272461,-2.1362305,-0.61035156
16835229,0.99450684,-0.11425781,-0.064086914,0.4272461,-2.1972656,-0.5493164
16835239,0.99279785,-0.1171875,-0.06274414,0.4272461,-2.380371,-0.5493164
16835249,0.99450684,-0.119628906,-0.06274414,0.4272461,-2.5024414,-0.5493164
16835259,0.9946289,-0.12121582,-0.06555176,0.4272461,-2.5634766,-0.61035156
16835269,0.9942627,-0.1204834,-0.06713867,0.4272461,-2.6245117,-0.61035156
16835279,0.9951172,-0.1184082,-0.0670166,0.4272461,-2.746582,-0.6713867
16835289,0.9954834,-0.1159668,-0.06665039,0.36621094,-2.6855469,-0.7324219
16835299,0.99487305,-0.115356445,-0.06555176,0.30517578,-2.746582,-0.6713867
16835309,0.99438477,-0.115478516,-0.06542969,0.18310547,-2.6855469,-0.48828125
16835319,0.9941406,-0.11621094,-0.06689453,0.12207031,-2.6855469,-0.5493164
16835329,0.99487305,-0.11743164,-0.06921387,0.12207031,-2.6245117,-0.48828125
16835349,0.9962158,-0.11608887,-0.06933594,0.30517578,-2.6855469,-0.4272461
16835369,0.99645996,-0.1171875,-0.068481445,0.36621094,-2.5024414,-0.4272461
16835379,0.99487305,-0.11828613,-0.068115234,0.24414062,-2.380371,-0.4272461
16835389,0.99438477,-0.11975098,-0.067871094,0.36621094,-2.4414062,-0.48828125
16835399,0.9953613,-0.11987305,-0.0690918,0.36621094,-2.380371,-0.4272461
16835409,0.99487305,-0.12072754,-0.06774902,0.36621094,-2.380371,-0.48828125
16835419,0.9954834,-0.11987305,-0.068481445,0.48828125,-2.380371,-0.61035156
16835429,0.9941406,-0.12036133,-0.06774902,0.61035156,-2.380371,-0.6713867
16835460,0.9941406,-0.119140625,-0.064819336,0.91552734,-2.4414062,-0.79345703
16835469,0.9953613,-0.118896484,-0.06213379,1.0375977,-2.5024414,-0.8544922
16835479,0.9941406,-0.1204834,-0.059936523,1.159668,-2.6245117,-1.0375977
16835489,0.99316406,-0.12121582,-0.05859375,1.2207031,-2.6855469,-0.9765625
16835499,0.9926758,-0.12011719,-0.060668945,1.3427734,-3.0517578,-1.2817383
16835519,0.99316406,-0.111328125,-0.061645508,0.8544922,-3.479004,-1.2207031
16835539,0.99438477,-0.11608887,-0.056152344,0.91552734,-4.0283203,-1.0375977
16835549,0.99731445,-0.11291504,-0.060424805,0.91552734,-4.0283203,-0.91552734
16835559,0.9998779,-0.107788086,-0.06591797,0.5493164,-4.0893555,-0.91552734
16835569,0.99938965,-0.10900879,-0.068847656,-0.18310547,-4.0893555,-0.8544922
16835579,0.99450684,-0.1138916,-0.07128906,-0.91552734,-3.90625,-0.7324219
16835589,0.989624,-0.12072754,-0.07507324,-1.5258789,-3.8452148,-0.7324219
16835599,0.9880371,-0.12646484,-0.07885742,-1.8920898,-3.7841797,-0.91552734
16835609,0.9934082,-0.12548828,-0.079711914,-1.7700195,-3.7841797,-1.0375977
16835619,0.9968262,-0.119506836,-0.0769043,-1.2207031,-3.7231445,-1.159668
16835629,0.9974365,-0.11608887,-0.07348633,-0.30517578,-3.6010742,-1.2817383
16835639,0.99560547,-0.115478516,-0.072753906,0.30517578,-3.540039,-1.2207031
16835649,0.99450684,-0.11425781,-0.07348633,0.6713867,-3.540039,-1.159668
16835659,0.9963379,-0.11315918,-0.07446289,0.7324219,-3.4179688,-1.0986328
16835679,1.0043945,-0.1105957,-0.07495117,-0.18310547,-2.9296875,-1.0375977
16835699,0.9916992,-0.11706543,-0.072631836,-0.4272461,-2.8686523,-0.91552734
16835709,0.98950195,-0.11804199,-0.07373047,-0.36621094,-2.9907227,-0.91552734
16835719,0.9893799,-0.11975098,-0.076416016,-0.24414062,-3.0517578,-1.0375977
16835729,0.99108887,-0.123168945,-0.07556152,-0.18310547,-3.112793,-0.9765625
16835739,0.9941406,-0.123291016,-0.07470703,0.18310547,-3.1738281,-1.159668
16835749,0.99816895,-0.1171875,-0.072021484,0.61035156,-3.0517578,-1.2207031
16835759,0.9974365,-0.115600586,-0.06665039,1.0375977,-3.1738281,-1.2817383
16835769,0.9963379,-0.11413574,-0.06652832,1.159668,-3.3569336,-1.3427734
16835779,0.9995117,-0.10986328,-0.06518555,1.0375977,-3.2348633,-1.3427734
16835789,1.0036621,-0.10644531,-0.0690918,0.36621094,-3.2958984,-1.4648438
16835799,1.0039062,-0.10437012,-0.072509766,-0.6713867,-3.1738281,-1.4648438
16835809,1.0032959,-0.10888672,-0.07421875,-1.6479492,-3.112793,-1.4038086
16835819,0.9971924,-0.11730957,-0.07287598,-2.2583008,-3.1738281,-1.4038086
16835829,0.9897461,-0.12585449,-0.07165527,-2.1972656,-3.6621094,-1.7089844
16835849,1.0026855,-0.12133789,-0.071777344,-0.36621094,-3.9672852,-2.5634766
16835869,1.0037842,-0.110961914,-0.076049805,0.7324219,-3.7231445,-2.746582
16835879,1.0145264,-0.10632324,-0.07531738,0.5493164,-3.6621094,-2.9296875
16835889,1.0328369,-0.103271484,-0.07836914,-0.6713867,-3.540039,-3.1738281
16835899,1.0476074,-0.10913086,-0.08166504,-2.319336,-2.9907227,-3.540039
16835909,1.0546875,-0.1171875,-0.0859375,-3.540039,-2.1362305,-4.0893555
16835919,1.0556641,-0.115478516,-0.09008789,-3.7841797,-1.2817383,-4.699707
16835929,1.0599365,-0.10632324,-0.10217285,-3.7231445,-0.48828125,-5.3100586
16835939,1.0629883,-0.095581055,-0.11218262,-4.8217773,-0.061035156,-5.493164
16835949,1.0670166,-0.076293945,-0.1060791,-5.493164,0.24414062,-5.3710938
16835959,1.0693359,-0.056884766,-0.09484863,-5.92041,0.5493164,-4.8217773
16835969,1.0692139,-0.055786133,-0.09411621,-6.3476562,0.6713867,-3.8452148
16835979,1.0948486,-0.103027344,-0.088256836,-7.080078,0.91552734,-3.7841797
16835989,1.0782471,-0.030761719,-0.0871582,-6.713867,1.159668,-16.296387
16836009,1.1121826,-0.10668945,-0.05529785,-13.977051,1.8310547,-4.8217773
16836029,1.1119385,-0.096069336,-0.07165527,-8.422852,2.5024414,-7.3242188
16836039,1.0897217,-0.091918945,-0.075683594,-8.483887,3.112793,-9.338379
16836049,1.0700684,-0.10522461,-0.068603516,-10.009766,3.7231445,-9.58252
16836059,1.0623779,-0.12036133,-0.0501709,-10.253906,4.272461,-9.277344
16836069,1.0600586,-0.10498047,-0.053466797,-7.080078,4.0283203,-10.131836
16836079,1.0755615,-0.07824707,-0.09509277,-2.9296875,3.112793,-12.268066
16836089,1.1130371,-0.0435791,-0.1171875,-1.0375977,2.6855469,-14.343262
16836099,1.1363525,-0.015991211,-0.103271484,-0.79345703,3.2958984,-15.136719
16836109,1.1287842,-0.02355957,-0.08496094,0.61035156,3.8452148,-14.6484375
16836119,1.1011963,-0.052001953,-0.083984375,2.5634766,3.9672852,-14.099121
16836161,1.1351318,-0.08728027,-0.087890625,2.6245117,3.6010742,-14.038086
16836180,1.1323242,-0.10083008,-0.09667969,-2.5634766,3.479004,-12.573242
16836190,1.1461182,-0.10949707,-0.09484863,-6.4697266,3.3569336,-12.023926
16836200,1.1674805,-0.12060547,-0.0949707,-9.82666,3.1738281,-11.59668
16836210,1.1657715,-0.13330078,-0.09729004,-13.000488,2.746582,-11.230469
16836220,1.1468506,-0.13659668,-0.091674805,-14.6484375,2.5634766,-10.986328
16836230,1.126831,-0.12963867,-0.103637695,-15.075684,2.0751953,-10.681152
16836240,1.130127,-0.122924805,-0.1126709,-16.662598,1.4648438,-10.620117
16836250,1.1456299,-0.11853027,-0.099121094,-17.27295,1.2207031,-10.620117
16836260,1.1450195,-0.10546875,-0.09326172,-15.319824,1.159668,-10.7421875
16836270,1.1240234,-0.09301758,-0.09631348,-14.709473,0.7324219,-10.986328
16836280,1.1054688,-0.067993164,-0.091918945,-15.625,0.61035156,-11.169434
16836290,1.1055908,-0.036132812,-0.09301758,-15.50293,0.36621094,-11.535645
16836300,1.1190186,-0.010498047,-0.09899902,-16.052246,0.4272461,-12.268066
16836320,1.0889893,0.017700195,-0.08312988,-24.169922,0.7324219,-14.953613
16836340,1.0743408,-4.8828125E-4,-0.07324219,-25.512695,-0.24414062,-17.333984
16836350,1.0981445,4.8828125E-4,-0.06689453,-25.817871,-0.5493164,-19.28711
16836360,1.1048584,0.005126953,-0.0657959,-25.878906,-0.5493164,-21.362305
16836370,1.0947266,0.006713867,-0.053588867,-26.000977,-0.24414062,-22.949219
16836380,1.0831299,0.010864258,-0.044677734,-26.123047,0.18310547,-24.414062
16836390,1.0855713,0.014282227,-0.03869629,-26.550293,0.30517578,-26.000977
16836400,1.0849609,0.018554688,-0.03149414,-27.038574,0.79345703,-27.954102
16836410,1.0778809,0.022949219,-0.033935547,-26.855469,1.159668,-29.846191
16836420,1.060669,0.033569336,-0.03137207,-26.916504,1.6479492,-31.49414
16836430,1.048584,0.04675293,-0.030273438,-26.794434,2.0141602,-32.714844
16836440,1.0482178,0.0513916,-0.041503906,-26.916504,2.0141602,-33.691406
16836450,1.0625,0.03942871,-0.04309082,-29.11377,1.8920898,-34.362793
16836460,1.0718994,0.020507812,-0.028442383,-31.00586,2.319336,-34.91211
16836470,1.0701904,0.008056641,-0.016845703,-29.846191,3.6010742,-37.475586
16836490,1.0883789,0.063964844,-0.03527832,-25.57373,5.859375,-41.992188
16836510,1.0361328,0.08959961,0.001953125,-25.939941,7.6293945,-43.5791
16836520,1.0556641,0.08618164,0.005004883,-25.024414,8.239746,-44.555664
16836530,1.0679932,0.08654785,-0.0020751953,-24.291992,8.422852,-46.14258
16836540,1.0527344,0.09375,-0.0013427734,-25.390625,8.7890625,-47.60742
16836550,1.0258789,0.103393555,-0.0043945312,-26.611328,8.972168,-48.339844
16836560,1.0109863,0.111450195,-0.014160156,-27.832031,9.521484,-48.76709
16836570,1.005127,0.11633301,-0.02319336,-30.273438,9.58252,-49.49951
16836580,0.9880371,0.11755371,-0.016845703,-33.38623,9.399414,-50.109863
16836590,0.95458984,0.111694336,-0.015991211,-34.42383,8.728027,-50.41504
16836600,0.90979004,0.103881836,-0.017211914,-32.836914,8.117676,-50.598145
16836610,0.8625488,0.10473633,-0.0107421875,-29.907227,7.6293945,-50.90332
16836620,0.82470703,0.114868164,0.004272461,-26.611328,6.8969727,-51.208496
16836630,0.782959,0.16625977,0.020874023,-23.254395,5.493164,-50.598145
16836650,0.80822754,0.1282959,0.030883789,-19.592285,0.9765625,-47.302246
16836670,0.7260742,0.12939453,0.040161133,-24.475098,-0.91552734,-45.47119
16836680,0.66955566,0.14758301,0.048583984,-22.094727,-1.5258789,-44.555664
16836690,0.63964844,0.14953613,0.03918457,-18.920898,-2.4414062,-43.09082
16836700,0.6208496,0.17272949,0.051879883,-17.456055,-2.8686523,-42.053223
16836710,0.61987305,0.19262695,0.045532227,-17.211914,-3.6010742,-40.222168
16836720,0.62939453,0.18432617,0.057861328,-18.066406,-4.333496,-37.17041
16836730,0.6374512,0.16540527,0.07348633,-18.493652,-4.5776367,-32.89795
16836740,0.63464355,0.1496582,0.07946777,-16.540527,-4.1503906,-28.625488
16836750,0.6263428,0.17163086,0.07092285,-12.817383,-3.112793,-25.817871
16836760,0.6274414,0.23266602,0.064453125,-11.71875,-1.8310547,-23.864746
16836770,0.65966797,0.28149414,0.06286621,-13.000488,-0.48828125,-21.1792
16836780,0.70654297,0.3178711,0.06347656,-15.50293,0.91552734,-16.723633
16836790,0.75,0.33081055,0.07128906,-18.493652,2.1362305,-11.413574
16836800,0.78466797,0.30810547,0.067871094,-20.568848,4.0893555,-2.4414062
16836820,0.8050537,0.33007812,0.07946777,-21.484375,3.2348633,-0.61035156
16836840,0.81677246,0.3623047,0.064575195,-13.244629,2.0141602,0.12207031
16836850,0.85253906,0.3741455,0.05102539,-10.253906,1.2207031,-0.48828125
16836860,0.88793945,0.38232422,0.07080078,-9.58252,0.5493164,-1.2207031
16836870,0.92163086,0.38415527,0.087524414,-6.8969727,-0.6713867,-1.5869141
16836880,0.9362793,0.3786621,0.08166504,-2.380371,-2.1972656,-1.8920898
16836890,0.9373779,0.3675537,0.087402344,0.061035156,-3.4179688,-2.0751953
16836900,0.92749023,0.3552246,0.08874512,0.61035156,-3.7841797,-2.746582
16836910,0.93078613,0.33935547,0.07385254,1.0986328,-4.5166016,-3.6621094
16836920,0.93518066,0.32409668,0.08166504,0.061035156,-4.333496,-4.3945312
16836930,0.9445801,0.30615234,0.088256836,-0.91552734,-4.0893555,-4.211426
16836940,0.94836426,0.28149414,0.10058594,-1.4038086,-3.6010742,-3.6010742
16836950,0.93322754,0.26464844,0.09741211,-0.91552734,-3.112793,-2.8686523
16836960,0.90856934,0.26257324,0.091552734,0.0,-2.9907227,-2.746582
16836980,0.91174316,0.30078125,0.06970215,5.1879883,-1.7089844,-3.479004
16837000,0.88586426,0.27807617,0.07446289,7.1411133,-0.9765625,-1.5869141
16837010,0.859375,0.26208496,0.068725586,6.5307617,-0.79345703,0.36621094
16837020,0.8376465,0.25561523,0.059814453,5.554199,-0.4272461,2.0751953
16837030,0.8129883,0.26342773,0.053710938,4.760742,-0.30517578,3.540039
16837040,0.78222656,0.26965332,0.05041504,4.760742,-0.18310547,4.9438477
16837050,0.7459717,0.26953125,0.049560547,4.5776367,-0.30517578,7.1411133
16837060,0.7266846,0.272583,0.044921875,3.9672852,-0.4272461,9.887695
16837070,0.7388916,0.28198242,0.02331543,2.6245117,-0.6713867,12.512207
16837080,0.7861328,0.28955078,-0.009277344,0.0,-0.9765625,14.282227
16837090,0.8363037,0.2845459,-0.033691406,-3.9672852,-1.2207031,14.770508
16837100,0.85302734,0.25891113,-0.043945312,-7.446289,-2.0141602,15.136719
16837110,0.82006836,0.2253418,-0.03857422,-9.155273,-3.2958984,16.052246
16837120,0.76013184,0.20056152,-0.040161133,-6.713867,-5.3710938,17.944336
16837130,0.7192383,0.18701172,-0.037719727,4.9438477,-10.314941,22.766113
16837150,0.73498535,0.20324707,0.00390625,20.385742,-14.6484375,27.954102
16837160,0.78234863,0.21655273,0.021606445,24.963379,-15.50293,29.35791
16837170,0.83654785,0.22021484,0.048095703,30.212402,-15.563965,29.296875
16837180,0.8826904,0.21875,0.037109375,35.339355,-15.808105,28.503418
16837190,0.92785645,0.21008301,0.029296875,34.66797,-15.74707,28.320312
16837200,0.94873047,0.20739746,0.03479004,30.334473,-14.892578,28.9917
16837210,0.94226074,0.19665527,0.040893555,27.282715,-13.916016,30.212402
16837220,0.9124756,0.18469238,0.03930664,26.489258,-13.244629,31.066895
16837230,0.8937988,0.18383789,0.036376953,26.184082,-13.000488,31.677246
16837240,0.89086914,0.17614746,0.038330078,26.367188,-12.390137,32.836914
16837250,0.88549805,0.16870117,0.041992188,28.198242,-11.352539,35.15625
16837260,0.8820801,0.17626953,0.032714844,29.541016,-10.192871,37.29248
16837270,0.8980713,0.20446777,0.036987305,28.259277,-9.033203,38.513184
16837280,0.920166,0.2253418,0.045043945,25.6958,-7.9956055,39.489746
16837290,0.9383545,0.20507812,0.03515625,22.033691,-7.5683594,41.015625
16837310,1.0290527,0.05505371,-0.0053710938,17.150879,-5.1879883,36.56006
16837330,1.0252686,0.064941406,-0.048706055,26.489258,-4.8217773,30.761719
16837340,0.9836426,0.07788086,-0.03955078,31.311035,-5.004883,30.517578
16837350,0.91918945,0.0892334,-0.009033203,37.78076,-4.9438477,31.738281
16837360,0.87072754,0.115478516,0.008178711,46.020508,-5.126953,33.081055
16837370,0.8675537,0.15515137,0.005493164,52.55127,-5.3100586,33.63037
16837410,1.0384521,0.17028809,0.016235352,48.461914,-2.380371,30.151367
16837419,1.0313721,0.14001465,0.015991211,40.46631,-1.0986328,28.869629
16837429,1.020874,0.119384766,0.011962891,34.179688,-0.061035156,26.672363
16837439,0.98657227,0.10546875,0.0078125,30.578613,0.7324219,24.719238
16837449,0.93322754,0.10449219,-0.026611328,29.35791,0.79345703,23.80371
16837459,0.8925781,0.0970459,-0.052246094,25.878906,0.24414062,23.986816
16837469,0.8796387,0.05444336,-0.05432129,21.362305,-0.30517578,26.184082
16837489,0.963501,0.010009766,-0.04296875,28.320312,-1.159668,26.550293
16837509,1.0335693,0.03149414,-0.03149414,21.78955,-1.2817383,26.916504
16837519,1.0478516,-0.025878906,-0.02709961,17.028809,-1.5258789,28.747559
16837529,1.0296631,-0.107055664,-0.024902344,14.831543,-1.5258789,30.212402
16837539,0.9963379,-0.16369629,-0.025512695,16.601562,-1.0986328,30.639648
16837549,0.9671631,-0.16137695,-0.048461914,20.935059,-0.48828125,30.456543
16837559,0.98010254,-0.1081543,-0.07946777,24.353027,-0.061035156,30.090332
16837569,1.0335693,-0.03173828,-0.06567383,24.414062,0.91552734,30.334473
16837579,1.0665283,0.009277344,-0.04296875,24.719238,1.4038086,31.61621
16837589,1.052002,-0.0068359375,-0.04675293,25.20752,0.6713867,33.203125
16837599,1.0355225,-0.061523438,-0.05883789,22.644043,-0.48828125,34.301758
16837609,1.0576172,-0.122924805,-0.0690918,19.592285,-1.8310547,34.5459
16837619,1.1086426,-0.15625,-0.0814209,19.65332,-2.6855469,33.447266
16837629,1.1435547,-0.15881348,-0.088134766,23.4375,-3.112793,31.311035
16837639,1.1364746,-0.12524414,-0.08581543,33.935547,-3.479004,27.70996
16837659,1.0765381,-0.024169922,-0.048339844,37.53662,-3.7231445,27.770996
16837679,1.0864258,0.011352539,-0.010620117,29.846191,-1.4038086,28.015137
16837689,1.1270752,0.0435791,6.1035156E-4,24.597168,0.30517578,27.832031
16837699,1.2043457,0.037109375,-0.038330078,17.27295,0.48828125,27.160645
16837709,1.2901611,-0.014770508,-0.05480957,5.79834,0.30517578,26.367188
16837719,1.3139648,-0.080566406,-0.041015625,-2.319336,0.30517578,25.817871
16837729,1.2624512,-0.14221191,-0.03942871,-2.9907227,-0.061035156,25.146484
16837739,1.1929932,-0.18078613,-0.027832031,0.61035156,-0.36621094,23.4375
16837749,1.1308594,-0.23291016,0.09680176,10.375977,0.24414062,20.751953
16837759,1.0869141,-0.25720215,-0.12207031,30.761719,-1.8310547,20.019531
16837769,1.1533203,-0.14343262,-0.24597168,37.109375,-5.7373047,19.836426
16837779,1.2347412,0.13452148,-0.048706055,16.357422,-3.6621094,11.169434
16837789,1.2416992,0.38354492,-0.008422852,21.728516,-2.380371,-0.48828125
16837799,1.1662598,0.31262207,-0.049316406,36.8042,15.319824,0.12207031
16837819,1.2872314,-0.11621094,-0.12768555,-40.58838,-1.2817383,13.244629
16837839,1.213501,-0.24682617,-0.19641113,-31.799316,-2.5634766,18.615723
16837849,1.2347412,-0.2010498,-0.2331543,-31.49414,-5.493164,17.944336
16837859,1.274292,-0.09301758,-0.17919922,-26.97754,-6.5307617,15.991211
16837869,1.2711182,-0.03845215,-0.10998535,-16.784668,-7.080078,13.183594
16837879,1.2290039,-0.064575195,-0.014160156,-9.216309,-6.7749023,9.399414
16837889,1.1745605,-0.13122559,0.09069824,-5.1879883,-5.3100586,5.6152344
16837899,1.1019287,-0.1953125,0.15490723,-1.953125,-3.6010742,3.0517578
16837909,1.0229492,-0.23999023,0.17382812,0.61035156,-2.0751953,1.953125
16837919,0.9686279,-0.2421875,0.14916992,3.7231445,-0.48828125,1.159668
16837929,0.94628906,-0.20605469,0.08618164,5.9814453,0.7324219,-0.18310547
16837939,0.9511719,-0.16088867,0.015380859,4.8828125,1.5869141,-1.3427734
16837949,0.95495605,-0.119384766,-0.038330078,2.6245117,1.8310547,-1.953125
16837959,0.9530029,-0.095214844,-0.07055664,1.159668,1.4038086,-2.4414062
16837969,0.9608154,-0.091796875,-0.079589844,-1.2817383,-0.30517578,-2.380371
16837989,1.0039062,-0.12866211,-0.03161621,-2.9296875,-1.6479492,-1.3427734
16837999,1.0080566,-0.14648438,-0.011230469,-2.0141602,-1.8310547,-1.159668
16838009,1.006958,-0.15795898,0.0056152344,-0.9765625,-1.7089844,-1.6479492
16838060,1.0125732,-0.08947754,-0.0057373047,2.5024414,-1.2207031,-3.90625
16838069,1.0074463,-0.075805664,-0.016967773,1.3427734,-0.9765625,-3.479004
16838079,0.9995117,-0.07470703,-0.027954102,-0.36621094,-0.61035156,-2.9907227
16838089,0.9888916,-0.08459473,-0.035888672,-2.5634766,-0.4272461,-2.5024414
16838099,0.9790039,-0.10192871,-0.040039062,-4.5776367,-0.4272461,-1.953125
16838109,0.9713135,-0.12036133,-0.037963867,-5.3710938,-0.6713867,-1.2207031
16838119,0.9720459,-0.13330078,-0.034423828,-4.8217773,-0.8544922,-0.6713867
16838129,0.98046875,-0.14196777,-0.027709961,-3.6010742,-1.0375977,-0.48828125
16838149,1.0032959,-0.12939453,0.0030517578,2.1972656,-1.8310547,-0.91552734
16838169,1.0078125,-0.115722656,0.0053710938,4.272461,-2.0141602,-0.9765625
16838179,1.00354,-0.11254883,-6.1035156E-4,4.333496,-2.0751953,-0.9765625
16838189,0.99523926,-0.11230469,-0.0059814453,4.0283203,-2.1362305,-1.0375977
16838199,0.99328613,-0.115356445,-0.012817383,3.3569336,-2.1972656,-0.9765625
16838209,0.989624,-0.12207031,-0.015380859,3.112793,-2.319336,-0.9765625
16838219,0.98986816,-0.1237793,-0.017333984,3.0517578,-2.4414062,-0.91552734
16838229,0.99157715,-0.12023926,-0.018066406,2.9296875,-2.5024414,-0.8544922
16838239,0.9953613,-0.115112305,-0.015014648,2.6245117,-2.6245117,-0.8544922
16838249,0.9979248,-0.111083984,-0.012084961,2.1362305,-2.6245117,-0.79345703
16838259,0.99658203,-0.111206055,-0.010253906,1.6479492,-2.8076172,-0.6713867
16838269,0.9923096,-0.11242676,-0.006958008,1.0986328,-2.8686523,-0.5493164
16838279,0.9902344,-0.115112305,-0.0043945312,0.36621094,-3.1738281,-0.30517578
16838289,0.9888916,-0.1171875,-0.00390625,-0.061035156,-3.4179688,-0.30517578
16838309,0.99365234,-0.11645508,-0.0048828125,-0.30517578,-3.7841797,-0.30517578
16838329,1.0037842,-0.111572266,-0.006591797,-0.61035156,-3.9672852,-0.18310547
16838339,1.0095215,-0.1105957,-0.008911133,-1.0986328,-3.7841797,-0.18310547
16838349,1.0089111,-0.1126709,-0.015625,-1.953125,-3.6621094,-0.24414062
16838359,0.9984131,-0.118896484,-0.022216797,-2.8076172,-3.540039,-0.36621094
16838369,0.99035645,-0.12414551,-0.021118164,-3.0517578,-3.6621094,-0.24414062
16838379,0.9880371,-0.13183594,-0.022094727,-2.4414062,-3.7231445,-0.12207031
16838389,0.9906006,-0.13537598,-0.01928711,-1.2207031,-3.90625,-0.18310547
16838399,0.994751,-0.13317871,-0.017578125,0.30517578,-4.0283203,-0.30517578
16838409,0.99279785,-0.12878418,-0.01574707,1.7700195,-4.211426,-0.30517578
16838419,0.9941406,-0.12194824,-0.014282227,3.0517578,-4.3945312,-0.18310547
16838429,0.9971924,-0.115234375,-0.013549805,3.540039,-4.3945312,-0.061035156
16838439,1.0014648,-0.11071777,-0.016845703,3.2348633,-4.272461,0.0
16838449,1.0025635,-0.10888672,-0.01965332,2.2583008,-4.0893555,0.0
16838459,0.9980469,-0.10888672,-0.0234375,0.9765625,-3.7841797,0.12207031
16838479,0.9975586,-0.12365723,-0.020751953,-0.61035156,-3.6621094,0.4272461
16838499,0.9992676,-0.12426758,-0.021362305,-0.061035156,-3.4179688,0.24414062
16838509,0.998291,-0.122802734,-0.020629883,0.24414062,-3.4179688,0.18310547
16838519,0.9971924,-0.123535156,-0.021606445,0.18310547,-3.3569336,0.12207031
16838529,0.99780273,-0.12451172,-0.020385742,0.061035156,-3.2348633,0.12207031
16838539,1.0001221,-0.123535156,-0.020996094,-0.18310547,-2.9907227,-0.061035156
16838549,0.9998779,-0.12194824,-0.026489258,-0.61035156,-2.6855469,-0.18310547
16838559,0.9991455,-0.12060547,-0.027954102,-1.159668,-2.4414062,-0.18310547
16838569,0.9971924,-0.1237793,-0.029418945,-1.5869141,-2.1362305,-0.18310547
16838579,0.9975586,-0.12609863,-0.029663086,-1.7700195,-1.953125,-0.18310547
16838589,0.9970703,-0.12817383,-0.025756836,-1.5869141,-1.8310547,-0.30517578
16838599,0.9980469,-0.13000488,-0.024291992,-1.0986328,-1.7700195,-0.36621094
16838609,0.998291,-0.13256836,-0.020629883,-0.18310547,-1.7089844,-0.4272461
16838619,0.99560547,-0.13134766,-0.017211914,0.79345703,-1.8920898,-0.5493164
16838639,0.99523926,-0.11999512,-0.019897461,2.1972656,-1.953125,-0.8544922
16838659,0.9974365,-0.115722656,-0.019897461,1.2817383,-1.6479492,-0.7324219
16838669,0.9980469,-0.11584473,-0.019165039,0.5493164,-1.6479492,-0.61035156
16838679,0.9979248,-0.1171875,-0.018798828,0.061035156,-1.4038086,-0.48828125
16838689,0.99890137,-0.119018555,-0.01965332,-0.36621094,-1.2817383,-0.4272461
16838699,0.9971924,-0.123046875,-0.020263672,-0.7324219,-1.159668,-0.36621094
16838709,0.99609375,-0.12609863,-0.020507812,-0.7324219,-1.159668,-0.36621094
16838719,0.9946289,-0.12866211,-0.018554688,-0.30517578,-1.2207031,-0.30517578
16838729,0.99328613,-0.1282959,-0.017211914,0.30517578,-1.2817383,-0.36621094
16838739,0.9946289,-0.12512207,-0.013916016,0.8544922,-1.4648438,-0.5493164
16838749,0.9974365,-0.1217041,-0.014892578,1.159668,-1.3427734,-0.6713867
16838759,0.99731445,-0.119140625,-0.013916016,1.0375977,-1.3427734,-0.6713867
16838769,0.99694824,-0.11853027,-0.012817383,0.61035156,-1.5258789,-0.5493164
16838779,0.99694824,-0.12133789,-0.012817383,0.12207031,-1.5258789,-0.4272461
16838789,0.9953613,-0.12634277,-0.012084961,-0.36621094,-1.7700195,-0.48828125
16838809,0.99365234,-0.12902832,-0.00793457,0.5493164,-2.2583008,-0.7324219
16838829,0.99523926,-0.12194824,-0.006958008,1.8920898,-2.6245117,-0.79345703
16838839,0.9974365,-0.12023926,-0.009155273,2.0751953,-2.6855469,-0.79345703
16838849,0.9992676,-0.114990234,-0.014282227,1.6479492,-2.6855469,-0.79345703
16838859,0.99890137,-0.11437988,-0.01940918,0.91552734,-2.5634766,-0.79345703
16838869,0.9962158,-0.11633301,-0.01928711,0.0,-2.5634766,-0.61035156
16838879,0.9941406,-0.12158203,-0.018432617,-0.7324219,-2.4414062,-0.61035156
16838889,0.9949951,-0.12597656,-0.016357422,-1.0375977,-2.5024414,-0.4272461
16838899,0.9938965,-0.1295166,-0.015380859,-0.9765625,-2.4414062,-0.5493164
16838909,0.9959717,-0.12890625,-0.014038086,-0.36621094,-2.5634766,-0.5493164
16838919,0.99658203,-0.12426758,-0.014770508,0.18310547,-2.5634766,-0.61035156
16838929,0.9967041,-0.12084961,-0.01550293,0.61035156,-2.746582,-0.61035156
16838939,0.9971924,-0.119384766,-0.014160156,0.9765625,-2.746582,-0.5493164
16838949,0.99572754,-0.11999512,-0.011474609,1.0375977,-2.9296875,-0.4272461
16838969,0.99731445,-0.12219238,-0.017456055,0.061035156,-2.746582,-0.5493164
16838989,0.99438477,-0.12890625,-0.016967773,-0.4272461,-2.6855469,-0.5493164
16838999,0.9959717,-0.12963867,-0.017456055,-0.24414062,-2.746582,-0.7324219
16839009,0.9949951,-0.12915039,-0.017822266,-0.061035156,-2.8076172,-0.8544922
16839019,0.9954834,-0.12792969,-0.01586914,0.61035156,-2.8076172,-0.91552734
16839029,0.9968262,-0.12780762,-0.015014648,1.2817383,-2.9296875,-0.9765625
16839039,0.9974365,-0.12475586,-0.013427734,1.7089844,-2.9296875,-1.0375977
16839049,0.9980469,-0.123291016,-0.010375977,1.953125,-3.0517578,-0.9765625
16839059,0.99658203,-0.12145996,-0.009643555,2.0751953,-3.112793,-1.0375977
16839069,0.99328613,-0.118896484,-0.010986328,1.953125,-3.1738281,-0.91552734
16839079,0.99279785,-0.11401367,-0.012084961,1.5869141,-3.2348633,-0.91552734
16839089,0.99450684,-0.111206055,-0.015258789,0.7324219,-3.3569336,-0.8544922
16839099,0.99560547,-0.10974121,-0.016479492,0.0,-3.3569336,-0.61035156
16839109,0.99523926,-0.111816406,-0.018554688,-0.6713867,-3.4179688,-0.24414062
16839119,0.9949951,-0.11633301,-0.018310547,-1.0375977,-3.4179688,0.12207031
16839139,0.9998779,-0.12585449,-0.022705078,-0.9765625,-3.1738281,0.18310547
16839149,1.0020752,-0.12512207,-0.027832031,-1.0375977,-2.8076172,0.18310547
16839159,1.0002441,-0.12536621,-0.03173828,-1.3427734,-2.5634766,0.061035156
16839169,0.9980469,-0.13098145,-0.032104492,-1.4648438,-2.319336,-0.061035156
16839179,0.9951172,-0.13659668,-0.030029297,-1.159668,-2.0141602,-0.18310547
16839189,0.9949951,-0.13793945,-0.026977539,-0.61035156,-1.7700195,-0.4272461
16839199,0.99523926,-0.13696289,-0.022949219,0.30517578,-1.6479492,-0.7324219
16839209,0.9980469,-0.13183594,-0.019042969,1.2817383,-1.7089844,-0.9765625
16839219,0.9968262,-0.1274414,-0.019042969,2.1362305,-1.6479492,-1.0986328
16839229,0.99731445,-0.12084961,-0.016967773,2.6855469,-1.5869141,-1.159668
16839239,0.9967041,-0.1184082,-0.016357422,2.6245117,-1.5869141,-1.0986328
16839249,0.9959717,-0.11804199,-0.0146484375,2.380371,-1.5869141,-1.0986328
16839260,0.99487305,-0.11804199,-0.013549805,2.0141602,-1.7700195,-0.91552734
16839269,0.99316406,-0.119384766,-0.011108398,1.5258789,-1.8310547,-0.79345703
16839279,0.99401855,-0.12072754,-0.009521484,1.3427734,-1.953125,-0.6713867
16839299,0.9959717,-0.123046875,-0.005004883,1.2207031,-2.5634766,-0.6713867
16839319,0.99560547,-0.118896484,-0.009887695,1.0375977,-2.9296875,-0.5493164
16839329,0.9951172,-0.11730957,-0.01171875,0.6713867,-3.112793,-0.5493164
16839339,0.99572754,-0.11657715,-0.015014648,0.24414062,-3.112793,-0.4272461
16839349,0.99853516,-0.11743164,-0.017578125,-0.4272461,-3.1738281,-0.36621094
16839359,0.9974365,-0.118896484,-0.018920898,-1.0986328,-3.112793,-0.30517578
16839369,0.9971924,-0.123535156,-0.017211914,-1.4038086,-3.2348633,-0.18310547
16839379,0.9959717,-0.12646484,-0.018066406,-1.3427734,-3.1738281,-0.12207031
16839389,0.9949951,-0.12890625,-0.016601562,-1.159668,-3.1738281,-0.18310547
16839410,0.99450684,-0.1295166,-0.018066406,-0.12207031,-3.3569336,-0.4272461
16839419,0.99487305,-0.12719727,-0.018920898,0.48828125,-3.3569336,-0.5493164
16839429,0.9963379,-0.123535156,-0.01953125,0.91552734,-3.3569336,-0.61035156
16839439,0.9967041,-0.12158203,-0.021362305,1.0986328,-3.2958984,-0.61035156
16839449,0.9970703,-0.12109375,-0.020141602,1.159668,-3.3569336,-0.48828125
16839469,0.9987793,-0.12182617,-0.028198242,0.48828125,-2.6245117,-0.61035156
16839479,0.99645996,-0.123046875,-0.029663086,0.0,-2.319336,-0.5493164
16839489,0.9946289,-0.1270752,-0.030517578,-0.30517578,-2.2583008,-0.5493164
16839499,0.9959717,-0.13122559,-0.024780273,-0.18310547,-2.1972656,-0.61035156
16839509,0.99816895,-0.13195801,-0.020874023,0.48828125,-2.1362305,-0.7324219
16839519,0.99816895,-0.12634277,-0.016967773,1.2207031,-2.0751953,-0.8544922
16839529,0.9970703,-0.12084961,-0.016357422,1.7700195,-2.0751953,-0.91552734
16839539,0.99694824,-0.11694336,-0.018798828,1.953125,-1.953125,-0.79345703
16839549,0.9958496,-0.11767578,-0.017456055,1.4648438,-1.953125,-0.7324219
16839559,0.9941406,-0.11816406,-0.016479492,0.79345703,-1.8920898,-0.6713867
16839569,0.99243164,-0.11975098,-0.017211914,0.061035156,-1.953125,-0.61035156
16839579,0.9921875,-0.12145996,-0.018188477,-0.4272461,-1.953125,-0.48828125
16839589,0.9938965,-0.12365723,-0.01586914,-0.8544922,-2.0751953,-0.4272461
16839599,0.9949951,-0.12658691,-0.017333984,-0.91552734,-2.0751953,-0.4272461
16839609,0.9953613,-0.1282959,-0.013671875,-0.5493164,-2.380371,-0.48828125
16839629,0.99768066,-0.12854004,-0.01171875,0.91552734,-2.5634766,-0.6713867
16839649,0.9980469,-0.12695312,-0.016113281,1.5258789,-2.6855469,-0.8544922
16839659,0.99645996,-0.12060547,-0.018920898,1.4038086,-2.6245117,-0.9765625
16839669,0.994751,-0.119140625,-0.021484375,0.9765625,-2.6245117,-0.91552734
16839679,0.9897461,-0.11816406,-0.0234375,0.4272461,-2.5634766,-0.79345703
16839689,0.99121094,-0.11767578,-0.022094727,-0.061035156,-2.746582,-0.6713867
16839699,0.9937744,-0.119506836,-0.018188477,-0.18310547,-2.8076172,-0.61035156
16839709,0.9959717,-0.12133789,-0.013671875,-0.12207031,-2.8686523,-0.48828125
16839719,0.9970703,-0.12036133,-0.013061523,0.12207031,-2.8686523,-0.36621094
16839729,1.0002441,-0.12097168,-0.014404297,0.30517578,-2.8686523,-0.36621094
16839739,1.0030518,-0.122924805,-0.01953125,0.18310547,-2.6855469,-0.36621094
16839749,1.0061035,-0.12194824,-0.020874023,-0.30517578,-2.6245117,-0.36621094
16839759,1.010498,-0.123535156,-0.01928711,-0.6713867,-2.4414062,-0.4272461
16839769,1.0178223,-0.12219238,-0.01977539,-0.9765625,-2.319336,-0.61035156
16839789,1.0084229,-0.1348877,-0.037109375,-1.2207031,-1.6479492,-0.91552734
16839809,0.97094727,-0.14294434,-0.036987305,-0.5493164,-1.7089844,-1.5869141
16839819,0.9764404,-0.13452148,-0.03466797,0.24414062,-1.7089844,-2.0141602
16839829,0.9873047,-0.122680664,-0.028442383,1.2817383,-1.953125,-2.1362305
16839839,0.9902344,-0.11206055,-0.024414062,2.4414062,-2.0141602,-1.953125
16839849,0.99108887,-0.10839844,-0.01586914,3.112793,-2.1362305,-1.5869141
16839859,0.99560547,-0.107910156,-0.0053710938,2.9296875,-2.2583008,-1.0986328
16839869,1.0048828,-0.10852051,2.4414062E-4,2.380371,-2.319336,-0.7324219
16839879,1.0129395,-0.109375,0.004760742,1.6479492,-2.2583008,-0.4272461
16839889,1.0117188,-0.111694336,0.0063476562,0.61035156,-2.1972656,-0.30517578
16839899,1.0058594,-0.1138916,0.002319336,-0.30517578,-2.0141602,-0.24414062
16839909,1.0003662,-0.122924805,-0.002319336,-1.0375977,-1.953125,-0.24414062
16839919,0.99780273,-0.12805176,-0.009399414,-1.4038086,-1.8920898,-0.36621094
16839929,0.99560547,-0.12963867,-0.013793945,-1.5869141,-1.8310547,-0.61035156
16839939,0.9920654,-0.12915039,-0.017211914,-1.4038086,-2.1972656,-0.91552734
16839959,1.0042725,-0.13427734,-0.0146484375,0.4272461,-2.380371,-1.0986328
16839979,1.0270996,-0.13989258,-0.0048828125,1.6479492,-2.4414062,-1.6479492
16839989,1.0499268,-0.15136719,0.0021972656,2.5024414,-2.2583008,-2.319336
16839999,1.0739746,-0.16687012,0.0068359375,3.7231445,-1.8310547,-3.4179688
16840009,1.1040039,-0.17346191,0.012207031,5.859375,-1.0375977,-5.004883
16840019,1.1260986,-0.15637207,0.01184082,8.850098,0.0,-6.713867
16840029,1.1651611,-0.1373291,0.005126953,10.498047,0.8544922,-7.9345703
16840039,1.2374268,-0.12536621,0.0056152344,12.145996,2.1362305,-8.972168
16840049,1.3377686,-0.11303711,-0.007080078,16.662598,3.90625,-9.94873
16840059,1.4710693,-0.0847168,0.0037841797,21.850586,6.3476562,-11.352539
16840069,1.6015625,-0.01977539,0.021728516,27.22168,9.399414,-13.427734
16840079,1.6451416,0.061157227,0.005493164,30.456543,11.779785,-15.625
16840089,1.5887451,0.15551758,0.009277344,25.57373,13.73291,-17.089844
16840099,1.4681396,0.23547363,0.0057373047,14.587402,14.709473,-15.625
16840119,1.1988525,0.12036133,-0.08850098,-23.07129,14.465332,-16.540527
16840139,1.09375,-0.053833008,-0.10046387,-46.63086,11.84082,-17.333984
16840149,1.0494385,-0.14025879,-0.08337402,-54.260254,11.169434,-17.63916
16840159,1.0091553,-0.20458984,-0.051635742,-56.82373,11.352539,-17.76123
16840169,0.9890137,-0.25195312,-0.040161133,-53.466797,11.169434,-18.005371
16840179,0.973999,-0.27563477,-0.041992188,-46.38672,10.375977,-18.798828
16840189,0.96435547,-0.25915527,-0.05847168,-35.88867,9.399414,-20.202637
16840199,0.9683838,-0.20446777,-0.07531738,-24.597168,8.422852,-22.155762
16840209,0.9744873,-0.11767578,-0.068725586,-15.380859,8.300781,-24.475098
16840219,0.98132324,-0.03930664,-0.056152344,-10.620117,8.178711,-26.794434
16840229,0.99108887,0.005126953,-0.037231445,-11.230469,7.6293945,-28.808594
16840239,0.9863281,-0.0025634766,-0.027709961,-15.197754,6.713867,-30.517578
16840249,0.9707031,-0.04248047,-0.013916016,-19.836426,5.2490234,-31.433105
16840259,0.9532471,-0.08911133,-0.010131836,-22.399902,3.479004,-31.677246
16840269,0.96118164,-0.13562012,-0.031982422,-22.338867,-1.5258789,-30.88379
16840289,0.954834,-0.18103027,-0.038330078,-15.625,-4.8217773,-29.968262
16840309,0.9484863,-0.1459961,-0.034179688,-7.446289,-7.3242188,-30.517578
16840319,0.95654297,-0.10876465,-0.036499023,-5.065918,-8.117676,-30.517578
16840329,0.97546387,-0.064575195,-0.044189453,-5.065918,-9.094238,-30.273438
16840339,0.98669434,-0.029418945,-0.036865234,-7.446289,-9.765625,-29.663086
16840349,0.9893799,-0.004272461,-0.008056641,-9.58252,-10.070801,-28.564453
16840359,1.0046387,0.0087890625,0.0043945312,-10.437012,-10.681152,-27.70996
16840369,1.0374756,0.012451172,0.017089844,-12.451172,-11.291504,-27.46582
16840379,1.057251,0.019165039,0.025878906,-15.075684,-11.657715,-27.526855
16840389,1.0683594,0.02368164,0.026123047,-17.8833,-12.023926,-27.893066
16840399,1.0791016,0.03137207,0.033813477,-20.874023,-11.84082,-29.052734
16840409,1.0941162,0.040283203,0.040649414,-22.949219,-11.291504,-30.88379
16840419,1.1103516,0.047607422,0.048706055,-24.169922,-10.803223,-32.77588
16840429,1.1119385,0.056152344,0.06311035,-24.291992,-10.070801,-36.071777
16840449,1.1444092,0.07800293,0.03149414,-24.291992,-8.422852,-37.597656
16840469,1.1445312,0.087890625,0.01965332,-30.151367,-6.652832,-38.879395
16840479,1.1097412,0.0814209,0.03137207,-32.77588,-5.92041,-38.94043
16840489,1.0775146,0.06933594,0.048095703,-33.75244,-5.126953,-38.879395
16840499,1.0628662,0.060546875,0.041259766,-31.860352,-4.3945312,-39.245605
16840509,1.0638428,0.07055664,0.030761719,-30.090332,-3.9672852,-40.405273
16840519,1.076416,0.08996582,0.039794922,-29.296875,-3.1738281,-41.870117
16840529,1.0828857,0.1048584,0.05102539,-27.58789,-2.319336,-42.785645
16840539,1.074585,0.11340332,0.048095703,-25.146484,-1.7700195,-42.96875
16840549,1.0570068,0.11437988,0.04638672,-24.841309,-0.8544922,-42.84668
16840559,1.0275879,0.11071777,0.05419922,-25.634766,0.36621094,-43.33496
16840569,0.9901123,0.10253906,0.06665039,-25.634766,1.2207031,-44.067383
16840579,0.9532471,0.08996582,0.06774902,-24.536133,1.4648438,-44.799805
16840589,0.9309082,0.087890625,0.052612305,-22.888184,1.4038086,-45.410156
16840599,0.9199219,0.0982666,0.044555664,-22.338867,1.6479492,-45.59326
16840619,0.8129883,0.16442871,0.046020508,-19.104004,0.4272461,-44.006348
16840629,0.8039551,0.14025879,0.022338867,-20.019531,-0.36621094,-42.3584
16840639,0.7803955,0.14379883,0.033813477,-22.094727,-0.9765625,-41.809082
16840649,0.7751465,0.1348877,0.030761719,-23.864746,-2.1362305,-41.137695
16840659,0.7672119,0.13623047,0.044189453,-23.4375,-2.4414062,-40.58838
16840669,0.75390625,0.14831543,0.057495117,-21.42334,-2.6855469,-39.855957
16840679,0.7553711,0.16101074,0.061645508,-20.507812,-3.2348633,-38.513184
16840710,0.78479004,0.16931152,0.061279297,-24.719238,-5.7373047,-33.02002
16840719,0.76330566,0.17907715,0.07385254,-24.169922,-6.225586,-30.395508
16840729,0.74572754,0.18688965,0.06945801,-22.033691,-7.019043,-27.648926
16840739,0.72998047,0.2244873,0.076171875,-19.348145,-7.385254,-25.939941
16840749,0.7224121,0.2746582,0.076538086,-16.906738,-7.446289,-24.658203
16840759,0.7224121,0.32312012,0.06896973,-16.113281,-7.751465,-19.836426
16840779,0.74121094,0.3137207,0.1303711,-18.981934,-7.873535,-14.526367
16840799,0.7003174,0.2626953,0.14953613,-12.756348,-7.2631836,-11.535645
16840809,0.6641846,0.27783203,0.14770508,-9.216309,-5.79834,-11.352539
16840819,0.65185547,0.32617188,0.125,-6.225586,-3.90625,-12.023926
16840829,0.6812744,0.37475586,0.095825195,-5.126953,-2.380371,-12.023926
16840839,0.7363281,0.41003418,0.088012695,-6.958008,-0.7324219,-10.864258
16840849,0.7857666,0.42236328,0.063964844,-8.178711,0.48828125,-8.666992
16840859,0.81311035,0.4182129,0.033691406,-9.521484,1.159668,-6.1035156
16840869,0.8144531,0.39978027,0.017700195,-12.390137,1.0986328,-3.4179688
16840879,0.7965088,0.36462402,0.01977539,-13.793945,0.9765625,-0.5493164
16840889,0.7907715,0.32763672,0.03137207,-11.84082,0.8544922,1.8310547
16840899,0.8218994,0.3079834,0.033081055,-6.8359375,0.8544922,3.112793
16840909,0.8763428,0.29833984,0.023925781,-0.9765625,0.5493164,3.90625
16840919,0.9205322,0.3022461,0.033569336,2.5634766,0.5493164,5.004883
16840939,0.96362305,0.35388184,0.07458496,10.314941,1.0375977,7.3242188
16840959,0.96313477,0.37976074,0.072753906,10.437012,0.9765625,4.5166016
16840969,0.9703369,0.3807373,0.053344727,8.483887,0.9765625,2.319336
16840979,0.97680664,0.39013672,0.038085938,5.859375,0.91552734,0.061035156
16840989,0.9857178,0.39123535,0.036865234,3.479004,0.4272461,-1.7089844
16840999,0.9807129,0.37268066,0.036865234,2.319336,-0.5493164,-2.6245117
16841009,0.9626465,0.3317871,0.034301758,2.0751953,-1.5869141,-2.319336
16841019,0.93640137,0.28930664,0.031982422,3.1738281,-2.4414062,-1.953125
16841029,0.92248535,0.26757812,0.02758789,5.3100586,-3.2348633,-1.953125
16841039,0.9234619,0.26379395,0.033691406,7.2021484,-3.7841797,-2.0751953
16841049,0.9477539,0.27905273,0.03869629,10.192871,-3.8452148,-2.1362305
16841059,0.9902344,0.30822754,0.017211914,12.023926,-3.7841797,-2.0751953
16841069,1.0172119,0.32617188,0.014160156,9.58252,-3.7231445,-1.6479492
16841079,0.99890137,0.3265381,0.032470703,4.3945312,-3.540039,-0.12207031
16841089,0.95080566,0.30993652,0.057861328,-0.5493164,-3.112793,3.6621094
16841109,0.9321289,0.2581787,0.07043457,0.91552734,-3.112793,1.159668
16841129,0.9628906,0.30236816,0.029418945,-0.24414062,-2.5634766,-0.18310547
16841139,0.93981934,0.31518555,0.03955078,-0.4272461,-1.8310547,0.8544922
16841149,0.9124756,0.31066895,0.045288086,0.79345703,-1.5869141,1.7089844
16841159,0.9154053,0.305542,0.026123047,1.3427734,-2.0141602,1.8310547
16841169,0.9526367,0.3071289,-8.544922E-4,-0.18310547,-2.5634766,1.2817383
16841179,0.99401855,0.31970215,0.003540039,-2.4414062,-2.746582,0.6713867
16841189,0.9906006,0.3314209,0.025146484,-2.5024414,-2.9907227,1.0986328
16841199,0.9543457,0.32043457,0.045532227,-0.8544922,-3.90625,2.380371
16841209,0.9034424,0.30444336,0.06616211,1.4038086,-4.638672,3.7841797
16841219,0.8721924,0.2947998,0.09008789,4.1503906,-5.3100586,4.272461
16841229,0.87683105,0.29919434,0.11633301,6.8969727,-5.6152344,3.6010742
16841239,0.9190674,0.303833,0.10583496,10.192871,-5.79834,2.0751953
16841249,0.9748535,0.30639648,0.076416016,11.535645,-5.7373047,0.79345703
16841269,1.0053711,0.32165527,0.051757812,3.6621094,-2.5024414,1.5869141
16841289,0.86987305,0.3187256,0.06506348,1.953125,0.12207031,2.0751953
16841299,0.84155273,0.31762695,0.06726074,2.6855469,0.9765625,2.9296875
16841309,0.84594727,0.32531738,0.061035156,3.4179688,1.8920898,4.272461
16841319,0.8786621,0.33911133,0.060546875,3.112793,2.6855469,5.6152344
16841329,0.9197998,0.34875488,0.06616211,2.8686523,3.2348633,7.019043
16841339,0.94348145,0.3388672,0.052368164,2.8076172,3.6621094,8.239746
16841349,0.9527588,0.31433105,0.029052734,1.8920898,3.6621094,8.544922
16841359,0.9420166,0.27941895,0.025756836,0.0,4.0283203,8.422852
16841369,0.90979004,0.25146484,0.016479492,-0.30517578,4.5776367,8.361816
16841379,0.873291,0.24487305,0.009521484,0.8544922,4.8828125,8.239746
16841389,0.8436279,0.2611084,0.02319336,4.0893555,4.760742,8.117676
16841399,0.8189697,0.29382324,0.03173828,9.887695,4.0283203,8.666992
16841409,0.8005371,0.31506348,0.029541016,15.136719,2.6855469,9.94873
16841419,0.7927246,0.32641602,0.010498047,1.8310547,-0.30517578,12.634277
16841439,0.9177246,0.2828369,-0.008056641,6.4697266,-2.0751953,13.85498
16841459,0.91015625,0.21655273,0.0,4.272461,-4.272461,14.282227
16841469,0.8358154,0.19128418,0.0052490234,5.92041,-5.6152344,15.258789
16841479,0.75878906,0.18493652,0.009887695,9.82666,-7.1411133,16.601562
16841489,0.6940918,0.20446777,0.03173828,15.319824,-8.666992,17.8833
16841499,0.6636963,0.23962402,0.05480957,22.583008,-9.70459,19.28711
16841509,0.68933105,0.2672119,0.045288086,28.442383,-10.375977,20.385742
16841519,0.7845459,0.28979492,0.034057617,28.625488,-10.620117,20.996094
16841529,0.897583,0.30065918,0.048583984,23.925781,-10.375977,21.78955
16841539,0.9715576,0.2685547,0.05810547,17.822266,-10.131836,23.31543
16841549,0.98779297,0.2166748,0.053833008,12.634277,-9.643555,24.597168
16841559,0.96325684,0.16955566,0.048583984,8.483887,-8.605957,24.536133
16841569,0.92297363,0.1484375,0.064941406,6.164551,-7.2631836,23.925781
16841579,0.8885498,0.14929199,0.07348633,7.751465,-6.3476562,24.841309
16841599,0.86047363,0.1829834,0.0546875,17.089844,-5.3100586,28.747559
16841619,0.94140625,0.19372559,0.06677246,17.089844,-3.0517578,32.836914
16841629,0.9974365,0.17749023,0.060424805,15.625,-2.6245117,33.203125
16841639,1.0319824,0.15625,0.059936523,12.878418,-2.0141602,32.592773
16841649,1.0355225,0.1262207,0.056640625,11.108398,-1.0986328,32.226562
16841659,1.0072021,0.09509277,0.04736328,10.986328,0.0,32.287598
16841669,0.9727783,0.07727051,0.037841797,12.084961,0.5493164,32.226562
16841679,0.9412842,0.07702637,0.036010742,14.160156,0.91552734,32.165527
16841689,0.91308594,0.07910156,0.01159668,17.39502,0.30517578,32.470703
16841699,0.892334,0.08557129,-0.006713867,19.77539,-0.4272461,33.38623
16841709,0.8753662,0.10217285,0.0012207031,20.690918,-0.61035156,35.03418
16841719,0.8684082,0.13647461,0.0014648438,23.132324,-0.91552734,36.621094
16841729,0.90771484,0.16137695,-0.0029296875,24.414062,-1.7089844,37.475586
16841739,0.9842529,0.1665039,0.0021972656,22.094727,-2.319336,37.17041
16841749,1.0478516,0.13562012,-0.0013427734,3.2958984,-3.8452148,36.254883
16841769,0.93847656,-0.041870117,0.021362305,14.404297,-4.8217773,34.179688
16841789,0.82580566,-0.10241699,0.009155273,25.024414,-5.6762695,34.484863
16841799,0.82214355,-0.0690918,-0.013916016,27.832031,-5.92041,36.43799
16841809,0.876709,0.0061035156,-0.005126953,27.09961,-5.554199,38.513184
16841819,0.9667969,0.07922363,0.0072021484,27.038574,-6.0424805,39.916992
16841829,1.0339355,0.11352539,0.006225586,26.367188,-6.286621,40.283203
16841839,1.064331,0.12219238,-0.016967773,23.55957,-6.164551,38.94043
16841849,1.0787354,0.0925293,-0.021484375,17.27295,-5.7373047,36.92627
16841859,1.0887451,0.027709961,-0.013549805,11.047363,-5.493164,35.40039
16841869,1.0755615,-0.020507812,-0.01184082,9.460449,-5.9814453,33.813477
16841879,1.0445557,-0.033813477,-0.01159668,12.512207,-6.3476562,32.043457
16841889,1.0047607,-0.0030517578,-0.0028076172,18.188477,-6.286621,30.700684
16841899,0.993042,0.040893555,-0.02319336,23.132324,-6.4086914,29.846191
16841909,1.0100098,0.06738281,-0.021118164,23.498535,-6.1035156,28.686523
16841929,1.0981445,0.041748047,-0.004638672,14.099121,-7.019043,27.58789
16841949,1.163208,-0.013427734,-0.0012207031,14.038086,-7.873535,23.986816
16841959,1.1832275,-0.037109375,-0.015991211,15.136719,-7.5683594,21.484375
16841969,1.1704102,-0.048217773,-0.01184082,14.709473,-6.8359375,19.348145
16842010,0.9265137,-0.010986328,-0.0045166016,21.972656,-3.4179688,17.76123
16842019,0.9268799,-0.036987305,0.0048828125,15.136719,-2.380371,20.019531
16842029,0.9777832,-0.08459473,0.0040283203,8.605957,-1.4648438,22.155762
16842039,1.0653076,-0.14489746,-0.022460938,3.4179688,-1.5869141,24.475098
16842049,1.1643066,-0.20922852,-0.040771484,-1.4038086,-1.8310547,26.550293
16842059,1.225708,-0.25268555,-0.03149414,0.91552734,-1.2207031,27.648926
16842069,1.2294922,-0.28503418,-0.041015625,9.460449,-0.6713867,28.686523
16842079,1.1851807,-0.28833008,-0.059936523,19.592285,1.3427734,29.968262
16842099,1.0223389,-0.10949707,-0.014404297,26.97754,3.90625,28.198242
16842109,0.9674072,-0.030517578,-0.007446289,24.536133,5.3710938,27.09961
16842119,0.91101074,0.032470703,-0.028320312,16.418457,5.6762695,27.648926
16842129,0.9102783,0.0056152344,-0.023071289,3.6621094,4.638672,29.846191
16842139,0.9638672,-0.12133789,0.17651367,-2.746582,4.699707,32.592773
16842149,1.0539551,-0.24951172,-0.022094727,9.338379,2.0751953,36.254883
16842159,1.2285156,-0.28320312,-0.18017578,9.277344,-4.5776367,36.865234
16842169,1.4188232,-0.055786133,-0.19494629,-13.122559,-8.544922,25.634766
16842179,1.4494629,0.24658203,-0.14929199,-5.493164,-6.225586,11.352539
16842189,1.2659912,0.27954102,-0.0032958984,16.174316,0.12207031,4.9438477
16842199,1.1062012,0.095214844,0.00793457,11.169434,-0.61035156,5.9814453
16842209,1.0783691,-0.032104492,-0.06384277,-7.873535,-6.4086914,8.7890625
16842219,1.1052246,-0.042236328,-0.06237793,-10.559082,-8.422852,9.277344
16842229,1.0957031,-0.07470703,-0.03894043,-1.5869141,-9.094238,8.239746
16842239,1.1364746,-0.15185547,-0.04711914,1.0986328,-10.925293,8.666992
16842259,1.7293701,-0.14746094,-0.0056152344,-18.432617,-8.239746,12.451172
16842279,1.1309814,-0.13623047,0.15710449,-19.836426,-0.61035156,8.911133
16842289,0.8963623,-0.17150879,0.14331055,-15.136719,0.5493164,4.5166016
16842299,0.7984619,-0.2142334,0.09692383,-8.056641,1.0375977,0.9765625
16842309,0.8095703,-0.24853516,0.043823242,-2.1362305,1.159668,-0.7324219
16842319,0.8529053,-0.26281738,-0.00793457,1.159668,0.4272461,-0.79345703
16842329,0.8717041,-0.2548828,-0.041259766,3.6010742,-0.6713867,-0.36621094
16842339,0.8748779,-0.22631836,-0.052856445,6.0424805,-1.7700195,-0.12207031
16842349,0.8967285,-0.19274902,-0.047729492,8.605957,-2.8076172,-0.36621094
16842359,0.9458008,-0.16601562,-0.028686523,10.375977,-3.4179688,-1.0375977
16842369,1.0007324,-0.14465332,-0.018676758,10.559082,-4.1503906,-1.8920898
16842379,1.0556641,-0.13513184,-0.008544922,7.9345703,-4.8217773,-2.5634766
16842389,1.0845947,-0.12890625,0.009643555,4.8217773,-4.9438477,-2.6855469
16842399,1.0839844,-0.13830566,0.029785156,3.90625,-4.699707,-2.5634766
16842419,1.0441895,-0.1697998,0.020996094,3.7231445,-3.6621094,-5.3710938
16842439,0.977417,-0.15820312,-0.016723633,4.638672,-3.1738281,-5.92041
16842449,0.96154785,-0.14318848,-0.021972656,4.5776367,-3.2348633,-5.6152344
16842459,0.95654297,-0.1270752,-0.026123047,3.8452148,-3.4179688,-5.1879883
16842469,0.9595947,-0.115478516,-0.025268555,2.6245117,-3.6621094,-4.5776367
16842479,0.96643066,-0.119384766,-0.022583008,0.91552734,-3.90625,-3.9672852
16842489,0.97094727,-0.13134766,-0.010009766,-0.91552734,-4.1503906,-3.4179688
16842499,0.97558594,-0.1463623,-6.1035156E-4,-1.8920898,-4.211426,-3.1738281
16842509,0.98779297,-0.15222168,0.009155273,-1.5258789,-4.211426,-3.1738281
16842519,1.0075684,-0.15124512,0.011230469,-0.6713867,-4.1503906,-3.2348633
16842529,1.0241699,-0.14550781,0.004638672,0.0,-4.0283203,-3.1738281
16842539,1.0275879,-0.14770508,-0.0024414062,0.0,-3.6621094,-2.9907227
16842549,1.0080566,-0.1517334,-0.007446289,0.24414062,-3.4179688,-2.9907227
16842559,0.9881592,-0.15600586,-0.009399414,1.0375977,-3.2958984,-3.3569336
16842569,0.97558594,-0.15661621,-0.01159668,2.5634766,-3.540039,-3.90625
16842589,1.0010986,-0.13745117,-0.024047852,6.958008,-3.8452148,-3.1738281
16842609,1.0030518,-0.12365723,-0.015258789,8.239746,-3.7231445,-2.2583008
16842619,0.9908447,-0.11682129,-0.011230469,8.361816,-3.8452148,-1.953125
16842629,0.98168945,-0.1138916,-0.0053710938,7.2631836,-3.90625,-1.4648438
16842639,0.9805908,-0.115112305,-0.0015869141,5.6152344,-3.90625,-0.9765625
16842649,0.9881592,-0.119384766,-0.0018310547,3.2958984,-3.9672852,-0.30517578
16842659,0.99072266,-0.12451172,-0.0020751953,0.9765625,-3.9672852,0.18310547
16842669,0.98498535,-0.13122559,0.0020751953,-0.61035156,-4.0893555,0.4272461
16842679,0.9798584,-0.13891602,0.00390625,-1.4038086,-4.272461,0.48828125
16842689,0.98498535,-0.14233398,0.0028076172,-1.8310547,-4.5776367,0.36621094
16842699,0.9946289,-0.1463623,8.544922E-4,-2.380371,-4.699707,0.4272461
16842709,1.0008545,-0.14477539,-0.0014648438,-2.380371,-4.760742,0.48828125
16842719,1.0024414,-0.14575195,-0.004272461,-1.8310547,-4.8217773,0.48828125
16842729,0.9980469,-0.14538574,-0.010253906,-1.4038086,-4.8828125,0.24414062
16842749,0.9909668,-0.15490723,-0.0146484375,-0.30517578,-5.432129,-0.24414062
16842769,0.993042,-0.15100098,-0.012939453,1.5258789,-5.554199,-0.48828125
16842779,0.9946289,-0.14160156,-0.014160156,2.2583008,-5.3710938,-0.61035156
16842789,0.9958496,-0.13183594,-0.01928711,2.319336,-5.065918,-0.7324219
16842799,0.9937744,-0.12573242,-0.024414062,1.2817383,-4.638672,-0.6713867
16842809,0.9902344,-0.12915039,-0.028198242,0.12207031,-4.3945312,-0.4272461
16842819,0.9902344,-0.13647461,-0.027954102,-0.6713867,-4.211426,-0.12207031
16842829,0.99401855,-0.14428711,-0.030883789,-1.0986328,-4.272461,0.12207031
16842839,0.9954834,-0.14733887,-0.028442383,-0.8544922,-4.0283203,0.24414062
16842849,0.9970703,-0.14562988,-0.028076172,0.12207031,-3.90625,0.4272461
16842859,0.99523926,-0.14282227,-0.026000977,1.159668,-3.7231445,0.61035156
16842869,0.99438477,-0.13769531,-0.025268555,1.8310547,-3.540039,0.6713867
16842879,0.9967041,-0.13476562,-0.026000977,1.953125,-3.3569336,0.79345703
16842889,1.0013428,-0.13305664,-0.025634766,1.6479492,-3.0517578,0.9765625
16842899,1.0042725,-0.13342285,-0.028320312,1.0986328,-2.319336,1.0986328
16842919,0.9949951,-0.15063477,-0.027832031,-0.79345703,-1.7089844,1.0986328
16842939,0.9925537,-0.15759277,-0.021972656,-0.061035156,-1.5258789,0.8544922
16842949,0.991333,-0.15600586,-0.01940918,0.61035156,-1.4648438,0.7324219
16842959,0.9921875,-0.15466309,-0.016479492,1.5869141,-1.4648438,0.61035156
16842969,0.9949951,-0.15258789,-0.014282227,2.2583008,-1.4038086,0.48828125
16842979,0.9942627,-0.14892578,-0.013305664,2.746582,-1.4648438,0.4272461
16842989,0.99194336,-0.14685059,-0.012573242,2.9296875,-1.5258789,0.30517578
16842999,0.99157715,-0.14611816,-0.011230469,2.8076172,-1.6479492,0.24414062
16843009,0.9929199,-0.14660645,-0.010864258,2.5024414,-1.6479492,0.18310547
16843019,0.9953613,-0.14880371,-0.010375977,2.0751953,-1.7700195,0.0
16843029,0.9946289,-0.15136719,-0.008422852,1.6479492,-2.0141602,-0.18310547
16843039,0.9958496,-0.15368652,-0.004760742,1.4038086,-2.2583008,-0.30517578
16843049,0.9925537,-0.15454102,-0.0021972656,1.4648438,-2.5024414,-0.48828125
16843059,0.99194336,-0.15539551,4.8828125E-4,1.6479492,-2.8076172,-0.9765625
16843079,0.99072266,-0.14831543,-0.0032958984,2.4414062,-3.8452148,-1.3427734
16843099,0.9938965,-0.13793945,-0.010253906,1.7089844,-4.0283203,-1.4648438
16843109,0.99365234,-0.13378906,-0.014526367,0.7324219,-4.1503906,-1.3427734
16843119,0.9951172,-0.13537598,-0.018676758,-0.36621094,-4.0893555,-1.2817383
16843129,0.9954834,-0.13867188,-0.021972656,-1.2817383,-4.0283203,-1.0986328
16843139,0.9963379,-0.14428711,-0.01977539,-1.8920898,-3.9672852,-1.0375977
16843149,0.9968262,-0.14685059,-0.020629883,-2.1362305,-3.8452148,-0.91552734
16843159,0.99694824,-0.14831543,-0.0234375,-2.0141602,-3.8452148,-0.91552734
16843169,0.9962158,-0.14892578,-0.023925781,-1.6479492,-3.6621094,-0.9765625
16843210,0.994751,-0.14624023,-0.03112793,0.0,-2.8686523,-0.91552734
16843229,0.99645996,-0.14868164,-0.027709961,0.8544922,-2.1362305,-0.9765625
16843249,0.9941406,-0.15039062,-0.026611328,1.2817383,-1.8310547,-1.159668
16843269,0.99523926,-0.14782715,-0.022949219,2.0141602,-1.5258789,-1.2207031
16843279,0.99487305,-0.14587402,-0.022094727,2.4414062,-1.5258789,-1.159668
16843289,0.9941406,-0.14331055,-0.01953125,2.9296875,-1.4038086,-1.0986328
16843299,0.99450684,-0.1427002,-0.017089844,3.0517578,-1.4038086,-1.0986328
16843309,0.99365234,-0.14025879,-0.015014648,2.9907227,-1.4038086,-1.0375977
16843319,0.9937744,-0.13769531,-0.014526367,2.6855469,-1.4038086,-0.9765625
16843329,0.99365234,-0.13708496,-0.013793945,2.2583008,-1.4648438,-0.8544922
16843339,0.9918213,-0.13500977,-0.012817383,1.6479492,-1.4648438,-0.79345703
16843349,0.9906006,-0.13647461,-0.010620117,1.0375977,-1.4648438,-0.61035156
16843359,0.99194336,-0.13879395,-0.0087890625,0.48828125,-1.6479492,-0.48828125
16843369,0.99108887,-0.14099121,-0.0076904297,0.12207031,-1.8920898,-0.4272461
16843379,0.99328613,-0.14404297,-0.0064697266,0.061035156,-2.0751953,-0.36621094
16843389,0.99328613,-0.14440918,-0.0059814453,-0.061035156,-2.2583008,-0.30517578
16843409,0.9935303,-0.1430664,-0.008911133,0.18310547,-2.9296875,-0.24414062
16843429,0.9934082,-0.14074707,-0.014282227,-0.24414062,-2.9296875,-0.36621094
16843439,0.99365234,-0.14331055,-0.016235352,-0.36621094,-3.0517578,-0.24414062
16843449,0.99279785,-0.14526367,-0.016967773,-0.48828125,-3.0517578,-0.24414062
16843459,0.9942627,-0.1459961,-0.015625,-0.5493164,-3.112793,-0.18310547
16843469,0.99572754,-0.1451416,-0.017700195,-0.4272461,-3.0517578,-0.18310547
16843479,0.99560547,-0.14550781,-0.018798828,-0.36621094,-2.9296875,-0.18310547
16843489,0.99523926,-0.1459961,-0.021484375,-0.4272461,-2.8686523,-0.18310547
16843499,0.99194336,-0.14831543,-0.020996094,-0.36621094,-2.8686523,-0.24414062
16843509,0.99365234,-0.15100098,-0.019165039,-0.061035156,-2.9296875,-0.24414062
16843519,0.9916992,-0.15075684,-0.017333984,0.4272461,-2.9296875,-0.30517578
16843529,0.9934082,-0.14831543,-0.016845703,0.9765625,-2.9296875,-0.36621094
16843539,0.9949951,-0.1451416,-0.016845703,1.3427734,-2.8076172,-0.4272461
16843549,0.99438477,-0.14343262,-0.017089844,1.4648438,-2.9296875,-0.48828125
16843559,0.994751,-0.14221191,-0.018676758,0.79345703,-2.746582,-0.4272461
16843579,0.9937744,-0.14428711,-0.02331543,-0.30517578,-2.5024414,-0.30517578
16843589,0.994751,-0.14733887,-0.022216797,-0.4272461,-2.319336,-0.24414062
16843599,0.9942627,-0.15075684,-0.020874023,-0.4272461,-2.2583008,-0.30517578
16843609,0.99438477,-0.15112305,-0.021240234,-0.18310547,-2.0751953,-0.36621094
16843619,0.9949951,-0.15136719,-0.018066406,0.18310547,-2.0141602,-0.48828125
16843629,0.9949951,-0.15148926,-0.016235352,0.7324219,-2.0141602,-0.48828125
16843639,0.99572754,-0.14892578,-0.017700195,1.2207031,-1.953125,-0.5493164
16843649,0.99487305,-0.14477539,-0.017456055,1.2207031,-1.953125,-0.61035156
16843659,0.9935303,-0.14123535,-0.017456055,0.9765625,-1.8920898,-0.61035156
16843669,0.99194336,-0.14025879,-0.017944336,0.7324219,-1.953125,-0.48828125
16843679,0.99072266,-0.14221191,-0.016357422,0.36621094,-2.0141602,-0.36621094
16843689,0.99194336,-0.14550781,-0.013916016,0.061035156,-2.0751953,-0.36621094
16843699,0.9918213,-0.14794922,-0.010986328,0.0,-2.1972656,-0.24414062
16843709,0.9920654,-0.14941406,-0.010253906,0.18310547,-2.380371,-0.30517578
16843719,0.99316406,-0.15161133,-0.009033203,0.5493164,-2.380371,-0.5493164
16843739,0.99279785,-0.15100098,-0.011962891,1.0986328,-2.8076172,-0.79345703
16843759,0.99365234,-0.1463623,-0.011352539,1.5869141,-2.9907227,-0.91552734
16843769,0.99365234,-0.14221191,-0.014160156,1.3427734,-3.0517578,-0.9765625
16843779,0.9935303,-0.13842773,-0.017456055,0.9765625,-2.9907227,-0.91552734
16843789,0.993042,-0.13793945,-0.018188477,0.4272461,-3.0517578,-0.79345703
16843799,0.993042,-0.13977051,-0.018188477,-0.12207031,-3.0517578,-0.7324219
16843809,0.99401855,-0.14404297,-0.018066406,-0.6713867,-3.0517578,-0.61035156
16843819,0.99316406,-0.14501953,-0.017456055,-0.79345703,-3.112793,-0.48828125
16843829,0.99243164,-0.14685059,-0.017944336,-0.61035156,-3.1738281,-0.30517578
16843839,0.9953613,-0.14660645,-0.017333984,-0.24414062,-3.2348633,-0.36621094
16843849,0.99487305,-0.14611816,-0.018554688,0.061035156,-3.1738281,-0.4272461
16843859,0.99438477,-0.14709473,-0.018798828,0.24414062,-3.112793,-0.36621094
16843869,0.99401855,-0.1463623,-0.020263672,0.36621094,-3.112793,-0.4272461
16843879,0.99487305,-0.14782715,-0.020141602,0.4272461,-3.0517578,-0.4272461
16843899,0.99438477,-0.1484375,-0.018920898,0.48828125,-2.8686523,-0.5493164
16843919,0.99438477,-0.1484375,-0.020629883,0.7324219,-2.8076172,-0.6713867
16843929,0.994751,-0.14916992,-0.020751953,1.0375977,-2.6245117,-0.7324219
16843939,0.99401855,-0.14697266,-0.01940918,1.2207031,-2.6245117,-0.7324219
16843949,0.9938965,-0.14550781,-0.021972656,1.159668,-2.6855469,-0.7324219
16843959,0.9926758,-0.14355469,-0.020263672,0.9765625,-2.5634766,-0.7324219
16843969,0.9937744,-0.14233398,-0.01940918,0.8544922,-2.5634766,-0.6713867
16843979,0.9942627,-0.14367676,-0.018554688,0.4272461,-2.4414062,-0.7324219
16843989,0.9949951,-0.14404297,-0.021606445,0.061035156,-2.380371,-0.61035156
16843999,0.99401855,-0.14648438,-0.01940918,-0.18310547,-2.380371,-0.61035156
16844009,0.99401855,-0.14770508,-0.018432617,-0.30517578,-2.319336,-0.5493164
16844019,0.99401855,-0.14978027,-0.01977539,-0.30517578,-2.1972656,-0.61035156
16844029,0.99560547,-0.1496582,-0.020996094,-0.12207031,-2.1362305,-0.6713867
16844039,0.99450684,-0.15014648,-0.022705078,0.12207031,-2.0141602,-0.79345703
16844049,0.9949951,-0.14904785,-0.02331543,0.24414062,-2.0751953,-0.8544922
16844069,0.9934082,-0.14916992,-0.017944336,1.0375977,-2.0751953,-0.9765625
16844089,0.9934082,-0.14343262,-0.016357422,1.7089844,-2.0751953,-1.0375977
16844099,0.9921875,-0.14086914,-0.013671875,1.6479492,-2.2583008,-1.0375977
16844109,0.9925537,-0.14025879,-0.014282227,1.5258789,-2.319336,-0.91552734
16844119,0.99316406,-0.13989258,-0.015014648,1.2817383,-2.380371,-0.7324219
16844129,0.9923096,-0.14123535,-0.015625,0.8544922,-2.5024414,-0.6713867
16844139,0.99279785,-0.14123535,-0.01586914,0.5493164,-2.5024414,-0.48828125
16844149,0.9935303,-0.14257812,-0.014404297,0.48828125,-2.5634766,-0.48828125
16844159,0.99523926,-0.14208984,-0.017822266,0.4272461,-2.5024414,-0.4272461
16844169,0.9953613,-0.14172363,-0.022583008,-0.061035156,-2.4414062,-0.36621094
16844179,0.99365234,-0.14282227,-0.022094727,-0.61035156,-2.319336,-0.30517578
16844189,0.99328613,-0.14660645,-0.020751953,-0.7324219,-2.319336,-0.18310547
16844199,0.9946289,-0.14929199,-0.021118164,-0.5493164,-2.319336,-0.18310547
16844209,0.9938965,-0.14868164,-0.01977539,-0.36621094,-2.380371,-0.24414062
16844229,0.99328613,-0.14953613,-0.018798828,0.30517578,-2.2583008,-0.30517578
16844249,0.9935303,-0.14868164,-0.015991211,0.5493164,-2.4414062,-0.48828125
16844259,0.99487305,-0.14758301,-0.016723633,0.6713867,-2.319336,-0.48828125
16844269,0.9954834,-0.1451416,-0.021606445,0.7324219,-2.2583008,-0.5493164
16844279,0.99316406,-0.14440918,-0.022705078,0.4272461,-2.1972656,-0.5493164
16844289,0.99121094,-0.14465332,-0.021728516,0.18310547,-2.1362305,-0.48828125
16844299,0.993042,-0.14904785,-0.018798828,0.24414062,-2.1362305,-0.48828125
16844309,0.9937744,-0.15002441,-0.019042969,0.48828125,-2.1362305,-0.61035156
16844319,0.99365234,-0.14916992,-0.017211914,0.7324219,-2.1362305,-0.6713867
16844329,0.99316406,-0.14758301,-0.014038086,1.0375977,-2.1362305,-0.6713867
16844339,0.9941406,-0.14697266,-0.014404297,1.159668,-2.1972656,-0.7324219
16844349,0.994751,-0.14685059,-0.013671875,1.159668,-2.380371,-0.7324219
16844359,0.99279785,-0.14453125,-0.011352539,1.0375977,-2.5024414,-0.6713867
16844369,0.993042,-0.14379883,-0.012084961,0.91552734,-2.5634766,-0.6713867
16844379,0.99316406,-0.14489746,-0.012939453,0.7324219,-2.8076172,-0.61035156
16844399,0.9937744,-0.14660645,-0.013671875,0.18310547,-3.0517578,-0.5493164
16844419,0.9949951,-0.14526367,-0.019042969,0.12207031,-3.0517578,-0.61035156
16844429,0.994751,-0.14587402,-0.021240234,0.0,-2.9907227,-0.61035156
16844439,0.9914551,-0.14672852,-0.021606445,0.061035156,-2.9907227,-0.61035156
16844449,0.9929199,-0.14782715,-0.022583008,0.0,-3.0517578,-0.5493164
16844459,0.99401855,-0.15002441,-0.022705078,0.18310547,-3.0517578,-0.61035156
16844469,0.9937744,-0.14904785,-0.019897461,0.30517578,-2.9907227,-0.61035156
16844479,0.9949951,-0.14819336,-0.020751953,0.5493164,-2.9296875,-0.6713867
16844489,0.9954834,-0.14501953,-0.021362305,0.61035156,-2.8686523,-0.61035156
16844499,0.9941406,-0.1439209,-0.022216797,0.5493164,-2.746582,-0.61035156
16844509,0.9941406,-0.14562988,-0.022338867,0.36621094,-2.6855469,-0.61035156
16844519,0.9941406,-0.14685059,-0.020874023,0.30517578,-2.5634766,-0.5493164
16844529,0.9941406,-0.14929199,-0.021728516,0.30517578,-2.6245117,-0.5493164
16844539,0.9946289,-0.1496582,-0.021728516,0.48828125,-2.6245117,-0.6713867
16844559,0.9935303,-0.14672852,-0.022216797,0.79345703,-2.319336,-0.79345703
16844579,0.99560547,-0.14477539,-0.022460938,0.6713867,-2.0141602,-0.79345703
16844589,0.9951172,-0.14367676,-0.020996094,0.61035156,-1.8920898,-0.7324219
16844599,0.9937744,-0.14294434,-0.020874023,0.5493164,-1.953125,-0.61035156
16844609,0.99487305,-0.14355469,-0.01928711,0.5493164,-1.8310547,-0.61035156
16844619,0.99243164,-0.14428711,-0.01953125,0.5493164,-1.8920898,-0.48828125
16844629,0.9923096,-0.14135742,-0.017211914,0.4272461,-1.8920898,-0.48828125
16844639,0.9923096,-0.14208984,-0.016601562,0.30517578,-1.8920898,-0.30517578
16844649,0.993042,-0.14416504,-0.015258789,0.18310547,-2.0751953,-0.24414062
16844659,0.9935303,-0.1459961,-0.012329102,0.18310547,-2.1362305,-0.18310547
16844669,0.9920654,-0.14575195,-0.014282227,0.12207031,-2.1972656,-0.24414062
16844679,0.9942627,-0.14794922,-0.01574707,0.061035156,-2.1972656,-0.18310547
16844689,0.9934082,-0.14855957,-0.017578125,-0.12207031,-2.1972656,-0.24414062
16844699,0.9925537,-0.14978027,-0.018066406,-0.24414062,-2.1362305,-0.36621094
16844709,0.99328613,-0.15307617,-0.017211914,0.18310547,-2.1972656,-0.5493164
16844729,0.99401855,-0.15283203,-0.014892578,1.0986328,-2.380371,-0.79345703
16844749,0.9937744,-0.1451416,-0.017700195,1.4648438,-2.380371,-0.9765625
16844759,0.99279785,-0.14196777,-0.018310547,1.159668,-2.4414062,-0.91552734
16844769,0.99194336,-0.14086914,-0.01965332,0.6713867,-2.5024414,-0.8544922
16844779,0.99316406,-0.1439209,-0.016357422,0.30517578,-2.5634766,-0.7324219
16844789,0.993042,-0.14575195,-0.015991211,0.12207031,-2.5024414,-0.6713867
16844799,0.9934082,-0.14831543,-0.01586914,0.12207031,-2.5634766,-0.6713867
16844809,0.99316406,-0.14685059,-0.015258789,0.0,-2.6245117,-0.7324219
16844819,0.9951172,-0.14660645,-0.017333984,0.30517578,-2.5634766,-0.79345703
16844829,0.9954834,-0.14746094,-0.018676758,0.4272461,-2.5634766,-0.7324219
16844839,0.99609375,-0.14538574,-0.020751953,0.5493164,-2.5024414,-0.7324219
16844849,0.99450684,-0.14550781,-0.022827148,0.4272461,-2.4414062,-0.7324219
16844859,0.9949951,-0.14489746,-0.02368164,0.30517578,-2.319336,-0.7324219
16844869,0.99450684,-0.14453125,-0.023925781,0.24414062,-2.319336,-0.5493164
16844889,0.9921875,-0.14941406,-0.018554688,0.48828125,-2.1972656,-0.5493164
16844909,0.9938965,-0.14685059,-0.013427734,1.0375977,-2.2583008,-0.61035156
16844919,0.9921875,-0.14428711,-0.013427734,1.159668,-2.319336,-0.61035156
16844929,0.9935303,-0.14343262,-0.015258789,1.0986328,-2.319336,-0.61035156
16844939,0.9935303,-0.14355469,-0.01586914,0.91552734,-2.380371,-0.6713867
16844949,0.99438477,-0.14318848,-0.018310547,0.5493164,-2.4414062,-0.48828125
16844959,0.99365234,-0.14404297,-0.01928711,0.36621094,-2.380371,-0.4272461
16844969,0.99316406,-0.14501953,-0.01928711,0.061035156,-2.380371,-0.48828125
16844979,0.9918213,-0.14746094,-0.020019531,-0.18310547,-2.4414062,-0.48828125
16844989,0.99243164,-0.1505127,-0.017211914,-0.12207031,-2.5024414,-0.48828125
16844999,0.9923096,-0.15112305,-0.014404297,0.12207031,-2.5024414,-0.5493164
16845009,0.993042,-0.1508789,-0.014282227,0.48828125,-2.5634766,-0.61035156
16845019,0.99365234,-0.14758301,-0.013305664,0.79345703,-2.6855469,-0.6713867
16845029,0.99438477,-0.14562988,-0.016235352,0.9765625,-2.6245117,-0.61035156
16845039,0.99523926,-0.14245605,-0.020141602,0.24414062,-2.6245117,-0.48828125
16845059,0.99450684,-0.1484375,-0.018432617,-0.5493164,-2.5024414,-0.36621094
16845069,0.9941406,-0.15197754,-0.017822266,-0.5493164,-2.5634766,-0.30517578
16845079,0.9935303,-0.15197754,-0.017822266,-0.24414062,-2.5024414,-0.4272461
16845089,0.99243164,-0.15039062,-0.018066406,0.18310547,-2.4414062,-0.4272461
16845099,0.9941406,-0.15112305,-0.020385742,0.48828125,-2.5024414,-0.5493164
16845109,0.9941406,-0.14831543,-0.020141602,0.79345703,-2.380371,-0.61035156
16845119,0.9938965,-0.14587402,-0.020996094,0.79345703,-2.380371,-0.7324219
16845129,0.99279785,-0.1451416,-0.020996094,0.91552734,-2.2583008,-0.6713867
16845139,0.9938965,-0.1451416,-0.022583008,0.9765625,-2.319336,-0.6713867
16845149,0.99401855,-0.14477539,-0.021606445,0.79345703,-2.2583008,-0.5493164
16845159,0.9929199,-0.14294434,-0.019165039,0.5493164,-2.2583008,-0.5493164
16845169,0.9925537,-0.1439209,-0.017456055,0.48828125,-2.1362305,-0.4272461
16845179,0.99401855,-0.14562988,-0.018066406,0.4272461,-2.1362305,-0.4272461
16845189,0.9938965,-0.14575195,-0.016113281,0.18310547,-2.1972656,-0.4272461
16845199,0.99279785,-0.14624023,-0.017700195,0.0,-2.1972656,-0.30517578
16845219,0.99365234,-0.15075684,-0.016601562,0.061035156,-2.1972656,-0.36621094
16845239,0.99194336,-0.14929199,-0.015136719,0.61035156,-2.1362305,-0.5493164
16845249,0.99328613,-0.14892578,-0.013305664,0.8544922,-2.2583008,-0.61035156
16845259,0.993042,-0.14709473,-0.013916016,1.0375977,-2.380371,-0.6713867
16845269,0.99401855,-0.14709473,-0.013549805,1.0375977,-2.4414062,-0.6713867
16845279,0.9941406,-0.14379883,-0.016235352,0.91552734,-2.4414062,-0.61035156
16845289,0.9937744,-0.14355469,-0.017944336,0.5493164,-2.4414062,-0.61035156
16845299,0.9925537,-0.14489746,-0.018432617,0.061035156,-2.380371,-0.5493164
16845309,0.9921875,-0.14709473,-0.016235352,-0.12207031,-2.5634766,-0.5493164
16845319,0.9929199,-0.1508789,-0.01586914,-0.061035156,-2.5634766,-0.48828125
16845329,0.99316406,-0.15124512,-0.015014648,0.12207031,-2.6245117,-0.5493164
16845339,0.9925537,-0.15026855,-0.016601562,0.48828125,-2.6855469,-0.6713867
16845349,0.99450684,-0.14929199,-0.017944336,0.79345703,-2.6855469,-0.79345703
16845359,0.9951172,-0.14672852,-0.015258789,0.9765625,-2.6245117,-0.79345703
16845379,0.993042,-0.14135742,-0.018676758,0.61035156,-2.8076172,-0.61035156
16845399,0.9941406,-0.1439209,-0.021484375,-0.18310547,-2.6855469,-0.4272461
16845409,0.99450684,-0.14562988,-0.0234375,-0.5493164,-2.6245117,-0.36621094
16845419,0.99328613,-0.14855957,-0.023925781,-0.7324219,-2.5634766,-0.36621094
16845429,0.99316406,-0.1508789,-0.021728516,-0.48828125,-2.4414062,-0.24414062
16845439,0.99401855,-0.15197754,-0.021240234,-0.18310547,-2.319336,-0.30517578
16845449,0.99328613,-0.15185547,-0.020385742,0.18310547,-2.319336,-0.4272461
16845459,0.99438477,-0.15112305,-0.020141602,0.48828125,-2.2583008,-0.5493164
16845469,0.99279785,-0.15039062,-0.020629883,0.6713867,-2.1362305,-0.61035156
16845479,0.9921875,-0.14929199,-0.018676758,0.8544922,-2.1972656,-0.61035156
16845489,0.9918213,-0.14880371,-0.016235352,0.9765625,-2.1972656,-0.6713867
16845499,0.99328613,-0.1484375,-0.016479492,0.9765625,-2.1362305,-0.79345703
16845509,0.99438477,-0.1472168,-0.015380859,0.91552734,-2.1972656,-0.79345703
16845519,0.9935303,-0.14575195,-0.017456055,0.79345703,-2.1972656,-0.79345703
16845529,0.99108887,-0.14660645,-0.016479492,0.7324219,-2.319336,-0.7324219
16845549,0.99316406,-0.14819336,-0.016723633,0.7324219,-2.380371,-0.79345703
16845569,0.99328613,-0.14855957,-0.014160156,0.9765625,-2.5634766,-0.8544922
16845579,0.9946289,-0.14611816,-0.012939453,0.9765625,-2.5634766,-0.79345703
16845589,0.994751,-0.14367676,-0.014404297,0.91552734,-2.5634766,-0.79345703
16845599,0.9942627,-0.1430664,-0.017211914,0.61035156,-2.5634766,-0.6713867
16845609,0.99401855,-0.14208984,-0.019165039,0.24414062,-2.5634766,-0.6713867
16845619,0.993042,-0.14172363,-0.01928711,-0.18310547,-2.5024414,-0.5493164
16845629,0.99401855,-0.1439209,-0.01953125,-0.48828125,-2.5024414,-0.4272461
16845639,0.99243164,-0.1472168,-0.017211914,-0.5493164,-2.5024414,-0.48828125
16845649,0.99316406,-0.15075684,-0.018310547,-0.30517578,-2.5024414,-0.4272461
16845659,0.99450684,-0.1508789,-0.018310547,0.0,-2.6245117,-0.36621094
16845669,0.99365234,-0.15014648,-0.016845703,0.48828125,-2.5634766,-0.48828125
16845710,0.99316406,-0.14440918,-0.022827148,0.24414062,-2.1972656,-0.48828125
16845729,0.9942627,-0.14941406,-0.01953125,0.24414062,-2.0751953,-0.4272461
16845739,0.9941406,-0.14929199,-0.017700195,0.4272461,-2.1362305,-0.48828125
16845749,0.99316406,-0.1496582,-0.015625,0.6713867,-2.1972656,-0.4272461
16845760,0.9926758,-0.14978027,-0.01586914,0.8544922,-2.1972656,-0.48828125
16845769,0.99243164,-0.14794922,-0.015625,0.91552734,-2.1362305,-0.48828125
16845779,0.99487305,-0.14733887,-0.015625,0.8544922,-2.1972656,-0.61035156
16845789,0.99365234,-0.1463623,-0.016113281,0.6713867,-2.1972656,-0.61035156
16845799,0.99401855,-0.14501953,-0.017822266,0.36621094,-2.1972656,-0.5493164
16845809,0.99316406,-0.14538574,-0.018920898,0.12207031,-2.1972656,-0.48828125
16845819,0.9941406,-0.14770508,-0.017089844,-0.12207031,-2.1972656,-0.48828125
16845829,0.9921875,-0.14892578,-0.015991211,-0.061035156,-2.319336,-0.5493164
16845839,0.993042,-0.14941406,-0.01550293,0.0,-2.319336,-0.48828125
16845849,0.9946289,-0.15014648,-0.015258789,0.24414062,-2.319336,-0.48828125
16845859,0.9942627,-0.1496582,-0.018066406,0.36621094,-2.4414062,-0.5493164
16845879,0.9954834,-0.14746094,-0.018798828,0.24414062,-2.319336,-0.6713867
16845899,0.99316406,-0.1484375,-0.016845703,0.24414062,-2.2583008,-0.6713867
16845909,0.99365234,-0.14916992,-0.016357422,0.36621094,-2.319336,-0.6713867
16845919,0.99279785,-0.14892578,-0.016113281,0.48828125,-2.4414062,-0.6713867
16845929,0.99316406,-0.14758301,-0.017333984,0.79345703,-2.4414062,-0.6713867
16845939,0.99365234,-0.14685059,-0.017578125,0.7324219,-2.380371,-0.7324219
16845949,0.99438477,-0.14587402,-0.018066406,0.5493164,-2.319336,-0.6713867
16845959,0.99365234,-0.14404297,-0.01928711,0.4272461,-2.380371,-0.6713867
16845969,0.9925537,-0.14538574,-0.018554688,0.4272461,-2.380371,-0.5493164
16845979,0.99316406,-0.1472168,-0.017456055,0.4272461,-2.319336,-0.48828125
16845989,0.9938965,-0.14733887,-0.016113281,0.24414062,-2.319336,-0.48828125
16845999,0.99279785,-0.14770508,-0.017089844,0.18310547,-2.2583008,-0.48828125
16846009,0.99328613,-0.14916992,-0.016967773,0.18310547,-2.2583008,-0.4272461
16846019,0.9934082,-0.14953613,-0.015991211,0.30517578,-2.380371,-0.48828125
16846039,0.99365234,-0.14819336,-0.0146484375,0.79345703,-2.5024414,-0.5493164
16846059,0.99365234,-0.14685059,-0.018188477,0.30517578,-2.4414062,-0.6713867
16846069,0.9941406,-0.14990234,-0.01940918,0.24414062,-2.4414062,-0.6713867
16846079,0.9954834,-0.15014648,-0.019042969,0.12207031,-2.380371,-0.7324219
16846089,0.9942627,-0.15014648,-0.017089844,0.12207031,-2.319336,-0.8544922
16846099,0.9937744,-0.14916992,-0.015258789,0.4272461,-2.1972656,-0.91552734
16846109,0.9941406,-0.14916992,-0.015380859,0.61035156,-2.1972656,-0.91552734
16846119,0.9946289,-0.14892578,-0.016357422,0.6713867,-2.0751953,-0.91552734
16846129,0.9949951,-0.14880371,-0.018432617,0.6713867,-2.1362305,-0.91552734
16846139,0.99560547,-0.14794922,-0.021362305,0.5493164,-2.0141602,-0.9765625
16846149,0.9949951,-0.14611816,-0.020507812,0.36621094,-1.953125,-0.9765625
16846159,0.99438477,-0.14550781,-0.01953125,0.18310547,-1.7700195,-0.9765625
16846169,0.99365234,-0.14611816,-0.019165039,0.061035156,-1.8310547,-1.0375977
16846179,0.99487305,-0.14782715,-0.017944336,0.061035156,-1.7089844,-0.9765625
16846189,0.99450684,-0.14990234,-0.017822266,0.24414062,-1.5869141,-1.0375977
16846209,0.9925537,-0.14624023,-0.015258789,0.8544922,-1.5869141,-1.0375977
16846219,0.9968262,-0.14245605,-0.013793945,0.9765625,-1.5869141,-1.159668
16846229,0.9974365,-0.14160156,-0.013061523,1.0375977,-1.7089844,-0.9765625
16846239,0.9970703,-0.14282227,-0.0107421875,0.8544922,-1.7700195,-0.9765625
16846249,0.9962158,-0.14428711,-0.010620117,0.61035156,-1.6479492,-0.8544922
16846259,0.9968262,-0.1472168,-0.010986328,0.24414062,-1.6479492,-0.91552734
16846269,0.99658203,-0.15063477,-0.011108398,-0.12207031,-1.6479492,-1.0375977
16846279,0.9962158,-0.15783691,-0.013549805,-0.12207031,-1.5258789,-1.2207031
16846289,0.9954834,-0.16442871,-0.012084961,0.36621094,-1.6479492,-1.4648438
16846299,0.99328613,-0.16564941,-0.011108398,0.9765625,-1.6479492,-1.7700195
16846309,0.9902344,-0.15942383,-0.012451172,1.6479492,-1.7700195,-2.1362305
16846319,0.99108887,-0.15356445,-0.014160156,2.1362305,-1.953125,-2.5024414
16846329,0.993042,-0.14782715,-0.01159668,2.5634766,-2.0141602,-2.8686523
16846339,0.9923096,-0.14562988,-0.009521484,2.9296875,-2.2583008,-3.1738281
16846349,0.9881592,-0.14233398,-0.006591797,2.8076172,-2.5024414,-3.2958984
16846369,0.98461914,-0.13793945,0.0063476562,1.5869141,-3.3569336,-3.0517578
16846389,0.9920654,-0.1348877,0.006591797,1.2817383,-4.333496,-2.746582
16846399,0.9975586,-0.13134766,0.004638672,1.0375977,-4.760742,-2.6245117
16846409,1.0031738,-0.12573242,-0.0010986328,0.61035156,-5.004883,-2.4414062
16846419,1.0070801,-0.12512207,-0.0072021484,-0.061035156,-5.126953,-2.1362305
16846429,1.0074463,-0.12792969,-0.015625,-0.8544922,-5.126953,-2.0141602
16846439,1.0118408,-0.13647461,-0.022827148,-1.4038086,-5.065918,-1.953125
16846449,1.0151367,-0.14367676,-0.025634766,-1.4038086,-4.9438477,-2.1972656
16846459,1.0148926,-0.14282227,-0.033447266,-1.0986328,-4.638672,-2.4414062
16846469,1.0144043,-0.14001465,-0.03955078,-1.4038086,-4.333496,-2.8076172
16846479,1.0234375,-0.13830566,-0.03857422,-2.5024414,-3.8452148,-3.112793
16846489,1.034668,-0.14074707,-0.034057617,-2.746582,-3.4179688,-3.1738281
16846499,1.0327148,-0.14196777,-0.032958984,-1.5869141,-2.8686523,-3.3569336
16846509,1.019165,-0.13842773,-0.032714844,-0.4272461,-2.1972656,-3.540039
16846519,1.0037842,-0.13195801,-0.032714844,-0.8544922,-1.0986328,-3.8452148
16846539,1.0231934,-0.12585449,-0.025756836,-2.0141602,-0.36621094,-3.9672852
16846549,1.0568848,-0.12988281,-0.036254883,-3.112793,0.0,-3.9672852
16846559,1.0861816,-0.13427734,-0.03491211,-3.6010742,0.5493164,-4.272461
16846569,1.1019287,-0.13659668,-0.02758789,-2.5024414,1.2817383,-4.638672
16846579,1.1044922,-0.12670898,-0.01965332,-0.9765625,1.8310547,-5.1879883
16846589,1.0983887,-0.11218262,-0.012573242,0.30517578,1.953125,-5.3710938
16846599,1.0863037,-0.09631348,-0.009643555,1.0375977,1.7089844,-5.3710938
16846609,1.085083,-0.088134766,-0.008422852,1.6479492,1.2207031,-5.554199
16846619,1.0866699,-0.08959961,-0.0045166016,3.0517578,0.9765625,-6.4086914
16846629,1.0968018,-0.107055664,-0.0010986328,5.065918,0.8544922,-7.6904297
16846639,1.1091309,-0.12548828,0.010253906,7.019043,1.0986328,-8.850098
16846649,1.119873,-0.1340332,0.025146484,8.666992,1.5869141,-9.521484
16846659,1.128418,-0.12219238,0.02746582,10.681152,2.5634766,-10.253906
16846669,1.1346436,-0.096069336,0.0087890625,11.71875,3.479004,-11.047363
16846679,1.1313477,-0.056518555,0.0020751953,9.58252,5.7373047,-11.779785
16846699,1.0948486,-0.048217773,-0.013183594,-3.90625,6.591797,-11.352539
16846719,1.1063232,-0.06555176,-0.023071289,-8.911133,6.958008,-12.207031
16846729,1.1345215,-0.06616211,-0.036376953,-9.277344,7.080078,-12.817383
16846739,1.1566162,-0.0625,-0.049316406,-9.94873,7.2631836,-13.73291
16846749,1.1578369,-0.051757812,-0.05810547,-11.59668,7.2631836,-14.465332
16846759,1.1540527,-0.052612305,-0.064941406,-14.282227,6.8969727,-15.075684
16846769,1.151123,-0.060913086,-0.068847656,-18.005371,6.1035156,-15.50293
16846779,1.1486816,-0.067993164,-0.06933594,-21.362305,5.2490234,-15.991211
16846789,1.1448975,-0.080078125,-0.06384277,-23.376465,4.272461,-16.052246
16846799,1.1452637,-0.10632324,-0.060913086,-25.024414,3.1738281,-15.50293
16846809,1.1568604,-0.14367676,-0.06530762,-26.550293,1.8920898,-15.014648
16846819,1.1689453,-0.1730957,-0.059570312,-26.855469,0.61035156,-15.319824
16846829,1.168335,-0.19335938,-0.053222656,-24.536133,-0.61035156,-16.540527
16846839,1.1584473,-0.20349121,-0.048095703,-19.53125,-1.8310547,-18.066406
16846859,1.1568604,-0.11682129,-0.03100586,-1.7700195,-4.272461,-23.80371
16846879,1.1625977,-0.044799805,-0.032104492,-2.6245117,-5.432129,-26.672363
16846889,1.1416016,-0.030517578,-0.02746582,-4.4555664,-5.7373047,-27.22168
16846899,1.1179199,-0.028686523,-0.024780273,-6.652832,-6.225586,-27.526855
16846909,1.088623,-0.032104492,-0.022827148,-9.094238,-6.7749023,-28.015137
16846919,1.0604248,-0.0345459,-0.018310547,-10.803223,-7.446289,-28.564453
16846929,1.0375977,-0.034423828,-0.02746582,-12.390137,-8.117676,-29.23584
16846960,0.99780273,-0.017089844,-0.041259766,-17.76123,-9.887695,-30.944824
16846969,0.9838867,-0.01184082,-0.04272461,-18.676758,-10.375977,-31.00586
16846979,0.9876709,-0.003540039,-0.04724121,-20.446777,-10.620117,-31.433105
16846989,1.00354,0.004272461,-0.051513672,-22.888184,-11.047363,-32.043457
16846999,1.0131836,0.012329102,-0.049682617,-25.32959,-10.925293,-32.89795
16847009,1.0014648,0.016723633,-0.05041504,-27.893066,-10.559082,-34.851074
16847029,0.95422363,0.020019531,-0.0390625,-32.287598,-10.7421875,-36.8042
16847049,0.9884033,0.021728516,-0.027954102,-33.63037,-12.573242,-38.513184
16847059,1.0045166,0.010009766,-0.03869629,-32.89795,-13.73291,-38.635254
16847069,1.0452881,-0.017211914,-0.067993164,-34.301758,-15.014648,-38.879395
16847079,1.0670166,-0.04321289,-0.07336426,-37.78076,-15.563965,-39.489746
16847089,1.0447998,-0.06726074,-0.05871582,-39.30664,-15.74707,-39.733887
16847099,0.99279785,-0.07849121,-0.0357666,-36.43799,-15.869141,-39.916992
16847109,0.9454346,-0.064575195,-0.025512695,-30.395508,-16.662598,-40.405273
16847119,0.92749023,-0.03540039,-0.022338867,-24.353027,-17.63916,-41.07666
16847129,0.935791,0.0015869141,-0.009643555,-19.28711,-18.432617,-41.44287
16847139,0.9593506,0.037597656,0.013427734,-14.465332,-18.554688,-41.381836
16847149,0.97802734,0.07824707,0.02368164,-8.7890625,-18.188477,-41.381836
16847159,0.98657227,0.12438965,0.016723633,-5.493164,-17.700195,-41.44287
16847169,0.9979248,0.16296387,0.02368164,-8.239746,-17.028809,-40.283203
16847189,1.0695801,0.18933105,0.01159668,-29.174805,-12.6953125,-40.283203
16847209,1.0211182,0.14685059,0.028808594,-35.40039,-8.239746,-39.0625
16847219,0.9810791,0.1381836,0.049682617,-32.77588,-5.7373047,-38.69629
16847229,0.97436523,0.1541748,0.03869629,-29.541016,-4.0283203,-39.0625
16847239,0.9991455,0.18151855,0.04333496,-28.076172,-1.8920898,-40.039062
16847249,1.0247803,0.21472168,0.045410156,-26.794434,0.48828125,-41.44287
16847259,1.0299072,0.23278809,0.051879883,-26.062012,2.746582,-42.541504
16847269,1.012085,0.23925781,0.044799805,-26.794434,5.065918,-42.72461
16847279,0.9871826,0.23815918,0.032836914,-30.395508,6.8969727,-42.114258
16847289,0.9576416,0.23156738,0.027954102,-35.27832,8.911133,-41.07666
16847299,0.9284668,0.21289062,0.018188477,-38.635254,10.620117,-40.58838
16847309,0.88952637,0.2130127,0.016357422,-39.42871,12.023926,-40.83252
16847319,0.8487549,0.20996094,0.04345703,-37.04834,13.122559,-40.527344
16847329,0.79626465,0.23071289,0.03942871,-31.25,13.427734,-39.55078
16847339,0.76586914,0.22949219,0.018188477,-25.20752,13.244629,-37.109375
16847359,0.6956787,0.2758789,0.010620117,-17.63916,12.390137,-37.475586
16847379,0.6727295,0.25720215,-0.033325195,-16.601562,9.887695,-35.15625
16847389,0.6706543,0.2512207,-0.044677734,-18.432617,8.361816,-33.691406
16847399,0.66516113,0.2508545,-0.028076172,-19.958496,6.713867,-31.61621
16847409,0.6602783,0.24267578,-0.024047852,-18.493652,4.272461,-28.869629
16847419,0.66345215,0.23303223,-0.012084961,-15.74707,1.2207031,-25.939941
16847429,0.67663574,0.2331543,-0.009765625,-12.6953125,-1.5258789,-23.19336
16847439,0.68688965,0.2508545,-0.018554688,-9.155273,-3.9672852,-20.996094
16847449,0.69836426,0.2758789,-0.01184082,-6.8969727,-5.859375,-19.89746
16847459,0.71398926,0.30895996,0.015380859,-5.6762695,-7.080078,-19.042969
16847469,0.74560547,0.32983398,0.014892578,-4.760742,-8.239746,-17.39502
16847479,0.79260254,0.34326172,0.004760742,-7.2631836,-9.338379,-15.380859
16847489,0.82995605,0.36254883,0.03552246,-12.390137,-9.887695,-13.366699
16847499,0.8535156,0.36621094,0.06689453,-15.563965,-10.375977,-8.605957
16847519,0.8894043,0.3232422,0.061523438,-15.136719,-10.681152,-6.5307617
16847539,0.9193115,0.38330078,0.060058594,-9.033203,-8.239746,-6.958008
16847549,0.9124756,0.41381836,0.071777344,-5.6152344,-6.7749023,-6.652832
16847559,0.8979492,0.4378662,0.080566406,-1.953125,-5.432129,-5.493164
16847569,0.90270996,0.44189453,0.06713867,-0.79345703,-4.272461,-3.7231445
16847579,0.9090576,0.4366455,0.07336426,-3.1738281,-2.9907227,-2.1362305
16847589,0.9074707,0.42016602,0.07507324,-4.5166016,-2.1972656,-0.91552734
16847599,0.8946533,0.39196777,0.076538086,-4.4555664,-1.4038086,-0.30517578
16847609,0.8824463,0.3741455,0.06335449,-2.9296875,-0.79345703,-0.61035156
16847619,0.88586426,0.36450195,0.059936523,-1.2207031,0.061035156,-1.3427734
16847629,0.8840332,0.36437988,0.056396484,0.0,0.9765625,-2.0751953
16847639,0.87390137,0.36450195,0.044433594,1.6479492,1.3427734,-2.4414062
16847649,0.8498535,0.3651123,0.045898438,2.746582,1.6479492,-2.4414062
16847659,0.8222656,0.35620117,0.06677246,4.0283203,2.2583008,-2.4414062
16847669,0.7973633,0.34020996,0.08288574,12.878418,2.319336,-2.9907227
16847689,0.88720703,0.36450195,-0.0010986328,14.221191,1.953125,-3.4179688
16847699,0.96154785,0.37756348,-0.0075683594,8.483887,2.1972656,-2.6855469
16847709,1.0072021,0.3659668,0.009643555,2.2583008,2.2583008,-0.8544922
16847719,1.0009766,0.3251953,0.019165039,-1.4648438,1.5869141,1.4038086
16847729,0.9671631,0.2833252,-0.0017089844,-2.0751953,0.48828125,2.6855469
16847739,0.9310303,0.2713623,-0.008911133,-1.953125,-0.12207031,2.5024414
16847749,0.9090576,0.2833252,-0.0021972656,-0.9765625,-0.5493164,1.953125
16847759,0.89746094,0.30249023,0.004638672,1.7700195,-1.4038086,1.8920898
16847769,0.89953613,0.3137207,-0.009643555,4.9438477,-2.9296875,2.5024414
16847779,0.9066162,0.3190918,-0.0078125,6.286621,-4.333496,3.6621094
16847789,0.91796875,0.3178711,-0.016357422,5.9814453,-5.554199,5.554199
16847799,0.94763184,0.3043213,-0.038085938,4.211426,-6.7749023,7.080078
16847809,0.98095703,0.30322266,-0.032958984,0.79345703,-7.080078,7.446289
16847819,0.9935303,0.3109131,-0.014526367,-0.7324219,-7.2021484,7.2021484
16847829,0.97595215,0.3112793,-0.007446289,-0.061035156,-7.507324,6.8359375
16847849,0.8909912,0.32946777,0.051635742,5.6762695,-6.713867,7.9956055
16847869,0.90649414,0.34106445,0.06323242,9.216309,-6.0424805,9.033203
16847879,0.92419434,0.3491211,0.06225586,10.192871,-5.6152344,9.155273
16847889,0.94348145,0.36010742,0.0345459,10.070801,-4.699707,9.460449
16847899,0.9613037,0.3729248,0.017578125,7.5683594,-3.2958984,9.277344
16847909,0.97509766,0.38757324,-0.0018310547,4.638672,-1.8920898,8.605957
16847919,0.98095703,0.3890381,-0.0024414062,1.7700195,-1.0986328,8.300781
16847929,0.97314453,0.3852539,-0.009399414,-0.061035156,-0.61035156,8.666992
16847939,0.96398926,0.37402344,-0.014160156,-0.61035156,-0.36621094,9.155273
16847949,0.9630127,0.37036133,-0.010986328,-0.4272461,0.061035156,9.521484
16847959,0.9678955,0.37670898,-0.0013427734,1.2207031,0.6713867,9.216309
16847969,0.9649658,0.38891602,0.009277344,3.90625,1.0375977,8.239746
16847979,0.9499512,0.39648438,0.016845703,6.652832,1.0375977,7.1411133
16847989,0.9345703,0.39855957,0.022338867,8.483887,0.8544922,6.4086914
16848009,0.9493408,0.40161133,-0.0043945312,6.5307617,2.1972656,4.333496
16848029,1.0316162,0.38464355,0.0021972656,-3.479004,3.7231445,2.319336
16848039,1.0257568,0.34362793,0.012451172,-5.6152344,3.8452148,2.319336
16848049,0.97424316,0.29162598,0.022216797,-5.065918,3.6010742,2.8686523
16848059,0.9074707,0.25878906,0.026245117,-2.5024414,2.9907227,3.479004
16848069,0.8684082,0.24584961,0.0357666,1.8310547,2.8076172,3.479004
16848079,0.8562012,0.25463867,0.048217773,8.117676,3.0517578,2.9907227
16848089,0.8522949,0.27575684,0.049682617,15.075684,3.4179688,2.6855469
16848099,0.86572266,0.29296875,0.034423828,18.737793,3.540039,2.9907227
16848109,0.8840332,0.30358887,0.033569336,17.39502,3.90625,3.7841797
16848119,0.9036865,0.3005371,0.03564453,14.221191,4.3945312,5.6152344
16848129,0.9083252,0.2775879,0.038330078,11.169434,4.699707,8.056641
16848139,0.8886719,0.2545166,0.03149414,9.155273,5.004883,9.887695
16848149,0.86169434,0.23779297,0.0234375,8.422852,5.126953,11.047363
16848210,0.77453613,0.20959473,0.026611328,22.949219,2.0141602,26.672363
16848219,0.85266113,0.21508789,0.027954102,25.024414,1.7089844,26.611328
16848229,0.9071045,0.22253418,0.027954102,27.282715,1.7089844,25.939941
16848239,0.9251709,0.23046875,0.024658203,28.503418,1.3427734,26.123047
16848249,0.90075684,0.24890137,0.040405273,27.954102,1.2817383,27.832031
16848259,0.8543701,0.2508545,0.049438477,26.062012,0.6713867,31.00586
16848269,0.80444336,0.24694824,0.036499023,23.925781,-0.48828125,34.362793
16848279,0.77282715,0.24267578,0.015380859,20.019531,-1.7089844,36.56006
16848289,0.77612305,0.24267578,0.024658203,14.526367,-2.1972656,37.231445
16848299,0.83654785,0.23718262,0.026489258,11.169434,-2.4414062,37.231445
16848309,0.9378662,0.21789551,0.02746582,10.070801,-2.6855469,36.743164
16848319,1.0285645,0.19812012,0.013793945,9.887695,-3.3569336,35.461426
16848339,1.0687256,0.15759277,-0.022583008,18.920898,-3.4179688,31.00586
16848359,1.0213623,0.2244873,-0.009521484,28.381348,-1.6479492,28.564453
16848369,1.0129395,0.25134277,0.008300781,28.198242,-1.0375977,29.23584
16848379,1.0042725,0.2487793,0.023071289,25.146484,-0.61035156,31.25
16848389,1.020752,0.20617676,0.016235352,19.042969,0.061035156,33.935547
16848399,1.0690918,0.15966797,0.017456055,10.070801,0.8544922,35.339355
16848409,1.1134033,0.14404297,0.022216797,2.9907227,2.319336,34.91211
16848419,1.1345215,0.13891602,0.010375977,-0.5493164,3.4179688,33.63037
16848429,1.126831,0.14587402,0.010375977,-2.0141602,4.8217773,31.677246
16848439,1.0906982,0.15515137,0.0034179688,-0.79345703,6.286621,29.968262
16848449,1.0527344,0.15112305,-0.012207031,0.91552734,6.958008,28.9917
16848459,1.0274658,0.14111328,-0.009399414,1.3427734,7.446289,28.259277
16848469,1.001709,0.13708496,-0.010131836,3.3569336,7.385254,28.137207
16848479,0.9764404,0.123413086,-0.022216797,7.019043,6.652832,28.320312
16848489,0.95825195,0.119384766,-0.03100586,10.070801,5.065918,27.893066
16848509,1.0206299,0.15625,-0.048217773,11.901855,3.2348633,26.489258
16848529,0.98950195,0.13391113,-0.0048828125,8.850098,1.8310547,24.414062
16848539,0.93395996,0.09753418,-0.0012207031,11.047363,0.5493164,23.31543
16848549,0.8937988,0.07824707,-0.007080078,13.427734,-1.0375977,21.972656
16848559,0.8717041,0.08850098,-0.020996094,15.808105,-2.319336,20.629883
16848569,0.8496094,0.11987305,-0.038330078,18.188477,-3.6010742,19.53125
16848579,0.8256836,0.15246582,-0.050048828,19.226074,-4.8828125,18.798828
16848589,0.82507324,0.16918945,-0.037353516,17.700195,-5.92041,18.432617
16848599,0.8499756,0.16577148,-0.009765625,15.808105,-6.958008,18.188477
16848609,0.8959961,0.13110352,-0.0068359375,15.74707,-8.666992,18.127441
16848619,0.94018555,0.09057617,-0.009887695,15.625,-10.253906,17.39502
16848629,0.9694824,0.060791016,-0.01184082,15.50293,-11.230469,15.441895
16848639,0.97229004,0.04296875,-0.01928711,16.967773,-11.84082,13.122559
16848649,0.94018555,0.027954102,-0.0045166016,18.798828,-12.329102,11.59668
16848669,0.8947754,-0.016113281,0.010009766,22.705078,-13.549805,15.258789
16848689,0.9868164,-0.06347656,-0.009155273,17.333984,-12.6953125,17.8833
16848699,1.0469971,-0.10180664,-0.01171875,13.73291,-11.657715,18.554688
16848709,1.0998535,-0.12585449,-0.02368164,11.108398,-9.765625,19.348145
16848719,1.138794,-0.122558594,-0.018676758,10.375977,-7.3242188,19.348145
16848729,1.1519775,-0.07922363,0.004638672,12.023926,-4.760742,18.859863
16848739,1.1340332,-0.02319336,-0.0021972656,14.831543,-3.3569336,19.16504
16848749,1.1182861,0.009277344,-0.0026855469,14.709473,-2.2583008,20.446777
16848759,1.0906982,0.02746582,0.018798828,13.427734,-0.6713867,22.155762
16848769,1.064331,0.025390625,0.027709961,11.657715,0.6713867,24.047852
16848779,1.0614014,0.0068359375,0.026245117,7.5683594,1.7089844,25.57373
16848789,1.0968018,-0.018432617,0.03942871,2.5634766,2.4414062,26.123047
16848799,1.1447754,-0.0546875,0.032226562,0.6713867,2.1362305,25.817871
16848809,1.1677246,-0.11450195,0.0053710938,0.48828125,1.2817383,25.268555
16848819,1.1618652,-0.1817627,-0.010620117,5.3100586,1.5258789,24.230957
16848861,1.0532227,0.048217773,-0.0390625,30.151367,1.0986328,20.629883
16848871,1.0529785,0.0925293,-0.033447266,27.70996,0.24414062,21.240234
16848881,1.0866699,0.04260254,-0.014526367,22.521973,-1.2207031,22.399902
16848891,1.1235352,-0.021240234,0.02746582,20.629883,-2.6245117,21.42334
16848901,1.1340332,-0.056884766,0.028564453,24.719238,-5.004883,18.981934
16848911,1.105835,-0.057861328,0.018188477,29.47998,-7.8125,16.418457
16848921,1.0498047,-0.032714844,0.018310547,33.63037,-9.94873,14.160156
16848931,0.9914551,-0.0037841797,0.0075683594,38.635254,-11.59668,11.962891
16848941,0.9313965,0.014404297,-0.014404297,43.33496,-13.366699,9.338379
16848951,0.86450195,0.04284668,-0.029785156,47.546387,-15.869141,3.6010742
16848971,0.77856445,0.12927246,-0.006225586,44.799805,-13.671875,0.8544922
16848981,0.83691406,0.16833496,-0.009155273,35.095215,-12.451172,0.8544922
16848991,0.9185791,0.18041992,4.8828125E-4,19.53125,-11.108398,3.1738281
16849001,0.9814453,0.10498047,0.06628418,5.1879883,-9.94873,7.080078
16849011,0.97998047,-0.10852051,0.17016602,-1.2207031,-8.544922,10.437012
16849021,0.9822998,-0.3922119,-0.046020508,-0.48828125,-10.864258,15.197754
16849031,1.0800781,-0.59643555,-0.07019043,-18.249512,-12.6953125,20.446777
16849041,1.1921387,-0.5206299,0.072631836,-44.86084,-11.291504,19.28711
16849051,1.1627197,-0.39343262,0.0769043,-30.761719,-9.643555,17.700195
16849061,1.0740967,-0.37524414,0.02709961,-1.953125,-6.5307617,20.324707
16849071,1.0671387,-0.30029297,0.015258789,4.3945312,-3.1738281,22.460938
16849081,1.1602783,-0.1138916,-0.044067383,-3.6621094,-2.319336,20.812988
16849091,1.2705078,0.092163086,-0.07849121,-4.760742,-1.0375977,16.357422
16849101,1.4471436,0.23400879,-0.1772461,1.4038086,-2.1972656,11.901855
16849111,1.8361816,0.3187256,-0.31591797,4.0893555,-7.5683594,4.699707
16849131,1.3986816,0.049926758,0.16271973,-0.9765625,3.90625,2.6245117
16849151,0.6690674,-0.28649902,0.15222168,-19.89746,0.48828125,-2.5024414
16849161,0.7006836,-0.35510254,0.10949707,-8.544922,0.8544922,-3.90625
16849171,0.8273926,-0.34838867,0.061401367,3.1738281,1.5869141,-4.5776367
16849181,0.89489746,-0.26843262,0.017456055,10.986328,2.4414062,-4.9438477
