time,aX,aY,aZ,gX,gY,gZ
5725682,0.009033203,-0.0043945312,1.0126953,0.48828125,-2.5024414,-0.6713867
5725682,0.009033203,-0.0043945312,1.0126953,0.48828125,-2.5024414,-0.6713867
5725692,0.006225586,-0.005859375,1.0150146,0.4272461,-2.5024414,-0.7324219
5725692,0.006225586,-0.005859375,1.0150146,0.4272461,-2.5024414,-0.7324219
5725702,0.0030517578,-0.0073242188,1.0164795,0.4272461,-2.4414062,-0.8544922
5725702,0.0030517578,-0.0073242188,1.0164795,0.4272461,-2.4414062,-0.8544922
5725712,0.006591797,-0.0056152344,1.0153809,0.4272461,-2.5024414,-0.8544922
5725712,0.006591797,-0.0056152344,1.0153809,0.4272461,-2.5024414,-0.8544922
5725722,0.010253906,-0.0059814453,1.0153809,0.4272461,-2.5634766,-0.8544922
5725722,0.010253906,-0.0059814453,1.0153809,0.4272461,-2.5634766,-0.8544922
5725732,0.007446289,-0.007080078,1.0163574,0.48828125,-2.4414062,-0.91552734
5725732,0.007446289,-0.007080078,1.0163574,0.48828125,-2.4414062,-0.91552734
5725742,0.00390625,-0.0068359375,1.0157471,0.48828125,-2.5024414,-0.8544922
5725752,0.004760742,-0.0059814453,1.0169678,0.48828125,-2.4414062,-0.8544922
5725772,0.005004883,-0.0032958984,1.0152588,0.48828125,-2.4414062,-0.91552734
5725792,0.0032958984,-0.005004883,1.0146484,0.48828125,-2.4414062,-0.91552734
5725802,0.003540039,-0.0056152344,1.0148926,0.48828125,-2.5024414,-0.8544922
5725812,0.0045166016,-0.0045166016,1.0135498,0.48828125,-2.380371,-0.79345703
5725834,0.0053710938,-0.0063476562,1.0164795,0.48828125,-2.5024414,-0.8544922
5725843,0.005493164,-0.008300781,1.0168457,0.48828125,-2.5024414,-0.7324219
5725843,0.005493164,-0.008300781,1.0168457,0.48828125,-2.5024414,-0.7324219
5725853,0.006958008,-0.0057373047,1.0166016,0.4272461,-2.5024414,-0.79345703
5725853,0.006958008,-0.0057373047,1.0166016,0.4272461,-2.5024414,-0.79345703
5725863,0.0072021484,-0.005493164,1.0148926,0.48828125,-2.5024414,-0.91552734
5725863,0.0072021484,-0.005493164,1.0148926,0.48828125,-2.5024414,-0.91552734
5725873,0.0059814453,-0.0052490234,1.0146484,0.48828125,-2.380371,-0.8544922
5725873,0.0059814453,-0.0052490234,1.0146484,0.48828125,-2.380371,-0.8544922
5725883,0.005126953,-0.0040283203,1.0135498,0.48828125,-2.4414062,-0.8544922
5725883,0.005126953,-0.0040283203,1.0135498,0.48828125,-2.4414062,-0.8544922
5725893,0.005859375,-0.004760742,1.0141602,0.4272461,-2.4414062,-0.91552734
5725893,0.005859375,-0.004760742,1.0141602,0.4272461,-2.4414062,-0.91552734
5725903,0.0045166016,-0.0048828125,1.0131836,0.4272461,-2.380371,-0.91552734
5725903,0.0045166016,-0.0048828125,1.0131836,0.4272461,-2.380371,-0.91552734
5725923,0.001953125,-0.00390625,1.0146484,0.48828125,-2.380371,-0.91552734
5725923,0.001953125,-0.00390625,1.0146484,0.48828125,-2.380371,-0.91552734
5725943,9.765625E-4,-4.8828125E-4,1.0151367,0.48828125,-2.4414062,-0.8544922
5725943,9.765625E-4,-4.8828125E-4,1.0151367,0.48828125,-2.4414062,-0.8544922
5725953,0.0029296875,-0.0029296875,1.0150146,0.48828125,-2.5024414,-0.79345703
5725963,0.0021972656,-0.0045166016,1.0135498,0.48828125,-2.5024414,-0.8544922
5725953,0.0029296875,-0.0029296875,1.0150146,0.48828125,-2.5024414,-0.79345703
5725973,0.00390625,-0.0053710938,1.0152588,0.5493164,-2.4414062,-0.79345703
5725963,0.0021972656,-0.0045166016,1.0135498,0.48828125,-2.5024414,-0.8544922
5725973,0.00390625,-0.0053710938,1.0152588,0.5493164,-2.4414062,-0.79345703
5725983,0.0045166016,-0.0043945312,1.0148926,0.48828125,-2.4414062,-0.79345703
5725983,0.0045166016,-0.0043945312,1.0148926,0.48828125,-2.4414062,-0.79345703
5725993,0.0063476562,-0.0032958984,1.0140381,0.48828125,-2.5024414,-0.7324219
5725993,0.0063476562,-0.0032958984,1.0140381,0.48828125,-2.5024414,-0.7324219
5726003,0.004638672,-0.0030517578,1.013916,0.48828125,-2.5024414,-0.79345703
5726013,0.004760742,-0.0037841797,1.0150146,0.5493164,-2.5634766,-0.79345703
5726003,0.004638672,-0.0030517578,1.013916,0.48828125,-2.5024414,-0.79345703
5726023,0.0064697266,-0.004760742,1.013916,0.4272461,-2.6245117,-0.79345703
5726013,0.004760742,-0.0037841797,1.0150146,0.5493164,-2.5634766,-0.79345703
5726033,0.0059814453,-0.005493164,1.0151367,0.4272461,-2.5634766,-0.7324219
5726023,0.0064697266,-0.004760742,1.013916,0.4272461,-2.6245117,-0.79345703
5726033,0.0059814453,-0.005493164,1.0151367,0.4272461,-2.5634766,-0.7324219
5726043,0.0043945312,-0.005859375,1.0153809,0.48828125,-2.5024414,-0.79345703
5726053,0.0045166016,-0.0052490234,1.013916,0.48828125,-2.5024414,-0.79345703
5726043,0.0043945312,-0.005859375,1.0153809,0.48828125,-2.5024414,-0.79345703
5726053,0.0045166016,-0.0052490234,1.013916,0.48828125,-2.5024414,-0.79345703
5726063,0.0061035156,-0.005493164,1.0145264,0.48828125,-2.5024414,-0.7324219
5726063,0.0061035156,-0.005493164,1.0145264,0.48828125,-2.5024414,-0.7324219
5726083,0.0053710938,-0.005004883,1.0152588,0.4272461,-2.380371,-0.8544922
5726083,0.0053710938,-0.005004883,1.0152588,0.4272461,-2.380371,-0.8544922
5726103,0.004638672,-0.0048828125,1.0136719,0.61035156,-2.319336,-0.91552734
5726103,0.004638672,-0.0048828125,1.0136719,0.61035156,-2.319336,-0.91552734
5726113,0.0037841797,-0.0045166016,1.0129395,0.5493164,-2.4414062,-0.8544922
5726113,0.0037841797,-0.0045166016,1.0129395,0.5493164,-2.4414062,-0.8544922
5726123,0.0036621094,-0.0057373047,1.0150146,0.48828125,-2.380371,-0.79345703
5726123,0.0036621094,-0.0057373047,1.0150146,0.48828125,-2.380371,-0.79345703
5726133,0.004272461,-0.005493164,1.0155029,0.5493164,-2.4414062,-0.7324219
5726133,0.004272461,-0.005493164,1.0155029,0.5493164,-2.4414062,-0.7324219
5726143,0.004760742,-0.0040283203,1.0141602,0.48828125,-2.4414062,-0.7324219
5726143,0.004760742,-0.0040283203,1.0141602,0.48828125,-2.4414062,-0.7324219
5726153,0.004638672,-0.0025634766,1.0151367,0.4272461,-2.5024414,-0.8544922
5726153,0.004638672,-0.0025634766,1.0151367,0.4272461,-2.5024414,-0.8544922
5726163,0.005126953,-0.0057373047,1.0151367,0.4272461,-2.5024414,-0.8544922
5726163,0.005126953,-0.0057373047,1.0151367,0.4272461,-2.5024414,-0.8544922
5726173,0.005126953,-0.0052490234,1.0157471,0.4272461,-2.380371,-0.8544922
5726173,0.005126953,-0.0052490234,1.0157471,0.4272461,-2.380371,-0.8544922
5726183,0.0061035156,-0.0056152344,1.0152588,0.4272461,-2.4414062,-0.8544922
5726183,0.0061035156,-0.0056152344,1.0152588,0.4272461,-2.4414062,-0.8544922
5726193,0.003540039,-0.0048828125,1.0148926,0.48828125,-2.5024414,-0.8544922
5726193,0.003540039,-0.0048828125,1.0148926,0.48828125,-2.5024414,-0.8544922
5726203,0.003540039,-0.004760742,1.0155029,0.48828125,-2.5634766,-0.8544922
5726203,0.003540039,-0.004760742,1.0155029,0.48828125,-2.5634766,-0.8544922
5726213,0.0052490234,-0.0041503906,1.0152588,0.5493164,-2.5024414,-0.8544922
5726223,0.0032958984,-0.0036621094,1.0148926,0.4272461,-2.4414062,-0.8544922
5726213,0.0052490234,-0.0041503906,1.0152588,0.5493164,-2.5024414,-0.8544922
5726223,0.0032958984,-0.0036621094,1.0148926,0.4272461,-2.4414062,-0.8544922
5726233,0.0028076172,-0.0040283203,1.0147705,0.4272461,-2.4414062,-0.79345703
5726233,0.0028076172,-0.0040283203,1.0147705,0.4272461,-2.4414062,-0.79345703
5726253,0.0045166016,-0.0041503906,1.0155029,0.48828125,-2.5024414,-0.79345703
5726273,0.006225586,-0.0057373047,1.0152588,0.36621094,-2.4414062,-0.8544922
5726253,0.0045166016,-0.0041503906,1.0155029,0.48828125,-2.5024414,-0.79345703
5726283,0.0068359375,-0.0053710938,1.0162354,0.48828125,-2.4414062,-0.8544922
5726273,0.006225586,-0.0057373047,1.0152588,0.36621094,-2.4414062,-0.8544922
5726293,0.005004883,-0.0048828125,1.0150146,0.4272461,-2.4414062,-0.8544922
5726283,0.0068359375,-0.0053710938,1.0162354,0.48828125,-2.4414062,-0.8544922
5726293,0.005004883,-0.0048828125,1.0150146,0.4272461,-2.4414062,-0.8544922
5726303,0.0053710938,-0.005126953,1.0148926,0.48828125,-2.380371,-0.91552734
5726303,0.0053710938,-0.005126953,1.0148926,0.48828125,-2.380371,-0.91552734
5726313,0.0059814453,-0.0040283203,1.0144043,0.48828125,-2.4414062,-0.8544922
5726313,0.0059814453,-0.0040283203,1.0144043,0.48828125,-2.4414062,-0.8544922
5726323,0.00390625,-0.0040283203,1.0148926,0.4272461,-2.380371,-0.8544922
5726323,0.00390625,-0.0040283203,1.0148926,0.4272461,-2.380371,-0.8544922
5726333,0.0034179688,-0.004638672,1.015625,0.48828125,-2.5024414,-0.8544922
5726333,0.0034179688,-0.004638672,1.015625,0.48828125,-2.5024414,-0.8544922
5726343,0.0043945312,-0.004638672,1.0142822,0.48828125,-2.5024414,-0.79345703
5726343,0.0043945312,-0.004638672,1.0142822,0.48828125,-2.5024414,-0.79345703
5726353,0.0043945312,-0.0048828125,1.0151367,0.48828125,-2.380371,-0.79345703
5726353,0.0043945312,-0.0048828125,1.0151367,0.48828125,-2.380371,-0.79345703
5726363,0.005004883,-0.0048828125,1.0152588,0.48828125,-2.4414062,-0.8544922
5726363,0.005004883,-0.0048828125,1.0152588,0.48828125,-2.4414062,-0.8544922
5726373,0.0036621094,-0.0048828125,1.0134277,0.4272461,-2.5024414,-0.8544922
5726373,0.0036621094,-0.0048828125,1.0134277,0.4272461,-2.5024414,-0.8544922
5726383,0.0040283203,-0.005004883,1.0153809,0.48828125,-2.380371,-0.7324219
5726393,-0.0025634766,-0.002319336,1.0178223,0.48828125,-2.380371,-0.8544922
5726383,0.0040283203,-0.005004883,1.0153809,0.48828125,-2.380371,-0.7324219
5726393,-0.0025634766,-0.002319336,1.0178223,0.48828125,-2.380371,-0.8544922
5726413,0.0072021484,-0.0073242188,1.0180664,0.4272461,-2.4414062,-0.8544922
5726413,0.0072021484,-0.0073242188,1.0180664,0.4272461,-2.4414062,-0.8544922
5726433,0.0078125,-0.0052490234,1.0140381,0.4272461,-2.5024414,-0.8544922
5726433,0.0078125,-0.0052490234,1.0140381,0.4272461,-2.5024414,-0.8544922
5726443,0.009155273,-0.004272461,1.0146484,0.4272461,-2.5024414,-0.7324219
5726443,0.009155273,-0.004272461,1.0146484,0.4272461,-2.5024414,-0.7324219
5726453,0.005859375,-0.005493164,1.0164795,0.5493164,-2.4414062,-0.79345703
5726453,0.005859375,-0.005493164,1.0164795,0.5493164,-2.4414062,-0.79345703
5726463,0.005859375,-0.0056152344,1.0157471,0.5493164,-2.380371,-0.8544922
5726463,0.005859375,-0.0056152344,1.0157471,0.5493164,-2.380371,-0.8544922
5726473,0.006591797,-0.005126953,1.013794,0.48828125,-2.4414062,-0.8544922
5726483,0.0063476562,-0.0059814453,1.017456,0.48828125,-2.4414062,-0.8544922
5726473,0.006591797,-0.005126953,1.013794,0.48828125,-2.4414062,-0.8544922
5726483,0.0063476562,-0.0059814453,1.017456,0.48828125,-2.4414062,-0.8544922
5726493,0.0028076172,-0.005493164,1.0170898,0.36621094,-2.4414062,-0.8544922
5726493,0.0028076172,-0.005493164,1.0170898,0.36621094,-2.4414062,-0.8544922
5726503,0.0030517578,-0.005126953,1.0168457,0.48828125,-2.4414062,-0.79345703
5726503,0.0030517578,-0.005126953,1.0168457,0.48828125,-2.4414062,-0.79345703
5726513,0.0045166016,-0.0036621094,1.0164795,0.48828125,-2.4414062,-0.79345703
5726523,0.0034179688,-0.0030517578,1.0147705,0.48828125,-2.4414062,-0.8544922
5726513,0.0045166016,-0.0036621094,1.0164795,0.48828125,-2.4414062,-0.79345703
5726523,0.0034179688,-0.0030517578,1.0147705,0.48828125,-2.4414062,-0.8544922
5726533,0.0029296875,-0.0034179688,1.0147705,0.48828125,-2.380371,-0.8544922
5726533,0.0029296875,-0.0034179688,1.0147705,0.48828125,-2.380371,-0.8544922
5726543,0.002319336,-0.004638672,1.0152588,0.4272461,-2.319336,-0.91552734
5726543,0.002319336,-0.004638672,1.0152588,0.4272461,-2.319336,-0.91552734
5726553,0.0029296875,-0.0048828125,1.0158691,0.48828125,-2.5024414,-0.8544922
5726553,0.0029296875,-0.0048828125,1.0158691,0.48828125,-2.5024414,-0.8544922
5726563,0.0028076172,-0.0041503906,1.0163574,0.5493164,-2.5024414,-0.7324219
5726563,0.0028076172,-0.0041503906,1.0163574,0.5493164,-2.5024414,-0.7324219
5726583,0.0045166016,-0.0034179688,1.0169678,0.5493164,-2.5634766,-0.8544922
5726583,0.0045166016,-0.0034179688,1.0169678,0.5493164,-2.5634766,-0.8544922
5726603,0.004638672,-0.005004883,1.0152588,0.48828125,-2.5634766,-0.79345703
5726613,0.0040283203,-0.004760742,1.0148926,0.5493164,-2.4414062,-0.79345703
5726603,0.004638672,-0.005004883,1.0152588,0.48828125,-2.5634766,-0.79345703
5726623,0.0061035156,-0.0045166016,1.0155029,0.48828125,-2.5024414,-0.79345703
5726613,0.0040283203,-0.004760742,1.0148926,0.5493164,-2.4414062,-0.79345703
5726623,0.0061035156,-0.0045166016,1.0155029,0.48828125,-2.5024414,-0.79345703
5726633,0.005493164,-0.004760742,1.0144043,0.48828125,-2.5634766,-0.79345703
5726633,0.005493164,-0.004760742,1.0144043,0.48828125,-2.5634766,-0.79345703
5726643,0.005126953,-0.004760742,1.0142822,0.4272461,-2.4414062,-0.79345703
5726653,0.011352539,-0.0048828125,1.0152588,0.4272461,-2.5024414,-0.8544922
5726643,0.005126953,-0.004760742,1.0142822,0.4272461,-2.4414062,-0.79345703
5726653,0.011352539,-0.0048828125,1.0152588,0.4272461,-2.5024414,-0.8544922
5726663,0.0087890625,-0.008056641,1.0140381,0.4272461,-2.5024414,-0.7324219
5726663,0.0087890625,-0.008056641,1.0140381,0.4272461,-2.5024414,-0.7324219
5726673,0.0024414062,-0.0073242188,1.0189209,0.4272461,-2.5024414,-0.7324219
5726673,0.0024414062,-0.0073242188,1.0189209,0.4272461,-2.5024414,-0.7324219
5726683,0.005004883,-0.005004883,1.0153809,0.4272461,-2.5634766,-0.79345703
5726683,0.005004883,-0.005004883,1.0153809,0.4272461,-2.5634766,-0.79345703
5726693,0.008911133,-0.0043945312,1.013794,0.48828125,-2.380371,-0.8544922
5726693,0.008911133,-0.0043945312,1.013794,0.48828125,-2.380371,-0.8544922
5726703,0.004760742,-0.005004883,1.0161133,0.48828125,-2.380371,-0.79345703
5726703,0.004760742,-0.005004883,1.0161133,0.48828125,-2.380371,-0.79345703
5726713,2.4414062E-4,-0.0034179688,1.0157471,0.48828125,-2.380371,-0.8544922
5726723,0.0024414062,-0.0034179688,1.0146484,0.5493164,-2.4414062,-0.79345703
5726713,2.4414062E-4,-0.0034179688,1.0157471,0.48828125,-2.380371,-0.8544922
5726723,0.0024414062,-0.0034179688,1.0146484,0.5493164,-2.4414062,-0.79345703
5726743,0.0034179688,-0.0068359375,1.0170898,0.5493164,-2.5024414,-0.79345703
5726743,0.0034179688,-0.0068359375,1.0170898,0.5493164,-2.5024414,-0.79345703
5726763,0.0075683594,-0.0041503906,1.0151367,0.48828125,-2.380371,-0.8544922
5726763,0.0075683594,-0.0041503906,1.0151367,0.48828125,-2.380371,-0.8544922
5726773,0.0061035156,-0.005004883,1.0150146,0.48828125,-2.5024414,-0.8544922
5726773,0.0061035156,-0.005004883,1.0150146,0.48828125,-2.5024414,-0.8544922
5726783,0.0041503906,-0.0057373047,1.0147705,0.48828125,-2.5024414,-0.7324219
5726783,0.0041503906,-0.0057373047,1.0147705,0.48828125,-2.5024414,-0.7324219
5726793,0.0037841797,-0.0056152344,1.0161133,0.48828125,-2.380371,-0.79345703
5726793,0.0037841797,-0.0056152344,1.0161133,0.48828125,-2.380371,-0.79345703
5726803,0.0040283203,-0.0045166016,1.0157471,0.4272461,-2.380371,-0.79345703
5726813,0.0041503906,-0.0029296875,1.0158691,0.48828125,-2.4414062,-0.79345703
5726803,0.0040283203,-0.0045166016,1.0157471,0.4272461,-2.380371,-0.79345703
5726823,0.0031738281,-0.0015869141,1.0166016,0.4272461,-2.5024414,-0.79345703
5726813,0.0041503906,-0.0029296875,1.0158691,0.48828125,-2.4414062,-0.79345703
5726833,0.003540039,-0.0031738281,1.0164795,0.5493164,-2.5024414,-0.79345703
5726823,0.0031738281,-0.0015869141,1.0166016,0.4272461,-2.5024414,-0.79345703
5726833,0.003540039,-0.0031738281,1.0164795,0.5493164,-2.5024414,-0.79345703
5726843,0.004760742,-0.004638672,1.0152588,0.4272461,-2.380371,-0.8544922
5726843,0.004760742,-0.004638672,1.0152588,0.4272461,-2.380371,-0.8544922
5726853,0.0041503906,-0.005126953,1.0141602,0.36621094,-2.4414062,-0.8544922
5726853,0.0041503906,-0.005126953,1.0141602,0.36621094,-2.4414062,-0.8544922
5726863,0.0052490234,-0.0041503906,1.0136719,0.48828125,-2.380371,-0.79345703
5726863,0.0052490234,-0.0041503906,1.0136719,0.48828125,-2.380371,-0.79345703
5726873,0.0032958984,-0.0037841797,1.0151367,0.48828125,-2.5024414,-0.8544922
5726873,0.0032958984,-0.0037841797,1.0151367,0.48828125,-2.5024414,-0.8544922
5726883,0.003540039,-0.0037841797,1.0162354,0.5493164,-2.4414062,-0.8544922
5726903,0.0026855469,-0.0045166016,1.0145264,0.48828125,-2.5024414,-0.8544922
5726883,0.003540039,-0.0037841797,1.0162354,0.5493164,-2.4414062,-0.8544922
5726903,0.0026855469,-0.0045166016,1.0145264,0.48828125,-2.5024414,-0.8544922
5726923,0.0043945312,-0.0037841797,1.0159912,0.48828125,-2.5634766,-0.7324219
5726923,0.0043945312,-0.0037841797,1.0159912,0.48828125,-2.5634766,-0.7324219
5726933,0.004760742,-0.0048828125,1.0146484,0.48828125,-2.5024414,-0.79345703
5726933,0.004760742,-0.0048828125,1.0146484,0.48828125,-2.5024414,-0.79345703
5726943,0.004272461,-0.005126953,1.0141602,0.5493164,-2.4414062,-0.79345703
5726943,0.004272461,-0.005126953,1.0141602,0.5493164,-2.4414062,-0.79345703
5726953,0.0056152344,-0.005493164,1.015625,0.48828125,-2.5024414,-0.79345703
5726953,0.0056152344,-0.005493164,1.015625,0.48828125,-2.5024414,-0.79345703
5726963,0.0052490234,-0.005126953,1.0146484,0.48828125,-2.5024414,-0.79345703
5726963,0.0052490234,-0.005126953,1.0146484,0.48828125,-2.5024414,-0.79345703
5726973,0.005493164,-0.005004883,1.015625,0.5493164,-2.4414062,-0.79345703
5726973,0.005493164,-0.005004883,1.015625,0.5493164,-2.4414062,-0.79345703
5726983,0.004760742,-0.005126953,1.0134277,0.5493164,-2.4414062,-0.8544922
5726983,0.004760742,-0.005126953,1.0134277,0.5493164,-2.4414062,-0.8544922
5726993,0.0040283203,-0.005004883,1.015625,0.5493164,-2.4414062,-0.8544922
5726993,0.0040283203,-0.005004883,1.015625,0.5493164,-2.4414062,-0.8544922
5727003,0.0034179688,-0.003540039,1.0153809,0.48828125,-2.4414062,-0.8544922
5727013,0.0037841797,-0.003540039,1.0159912,0.4272461,-2.4414062,-0.8544922
5727003,0.0034179688,-0.003540039,1.0153809,0.48828125,-2.4414062,-0.8544922
5727013,0.0037841797,-0.003540039,1.0159912,0.4272461,-2.4414062,-0.8544922
5727023,0.0052490234,-0.004638672,1.0152588,0.48828125,-2.4414062,-0.8544922
5727023,0.0052490234,-0.004638672,1.0152588,0.48828125,-2.4414062,-0.8544922
5727084,0.0061035156,-0.0052490234,1.0158691,0.48828125,-2.380371,-0.8544922
5727094,0.0045166016,-0.0045166016,1.0151367,0.4272461,-2.4414062,-0.8544922
5727104,0.004272461,-0.0043945312,1.0145264,0.36621094,-2.4414062,-0.7324219
5727114,0.004638672,-0.004638672,1.0155029,0.4272461,-2.4414062,-0.8544922
5727084,0.0061035156,-0.0052490234,1.0158691,0.48828125,-2.380371,-0.8544922
5727094,0.0045166016,-0.0045166016,1.0151367,0.4272461,-2.4414062,-0.8544922
5727104,0.004272461,-0.0043945312,1.0145264,0.36621094,-2.4414062,-0.7324219
5727124,0.004760742,-0.0037841797,1.0152588,0.5493164,-2.4414062,-0.8544922
5727114,0.004638672,-0.004638672,1.0155029,0.4272461,-2.4414062,-0.8544922
5727124,0.004760742,-0.0037841797,1.0152588,0.5493164,-2.4414062,-0.8544922
5727134,0.0041503906,-0.00390625,1.0159912,0.61035156,-2.4414062,-0.79345703
5727134,0.0041503906,-0.00390625,1.0159912,0.61035156,-2.4414062,-0.79345703
5727144,0.0036621094,-0.0040283203,1.0148926,0.5493164,-2.5024414,-0.79345703
5727154,0.004760742,-0.0048828125,1.0150146,0.5493164,-2.4414062,-0.91552734
5727144,0.0036621094,-0.0040283203,1.0148926,0.5493164,-2.5024414,-0.79345703
5727164,0.004760742,-0.0041503906,1.0146484,0.4272461,-2.319336,-0.8544922
5727154,0.004760742,-0.0048828125,1.0150146,0.5493164,-2.4414062,-0.91552734
5727174,0.0040283203,-0.005126953,1.0140381,0.5493164,-2.380371,-0.79345703
5727164,0.004760742,-0.0041503906,1.0146484,0.4272461,-2.319336,-0.8544922
5727174,0.0040283203,-0.005126953,1.0140381,0.5493164,-2.380371,-0.79345703
5727184,0.004760742,-0.0045166016,1.015625,0.48828125,-2.4414062,-0.8544922
5727184,0.004760742,-0.0045166016,1.015625,0.48828125,-2.4414062,-0.8544922
5727194,0.0048828125,-0.004638672,1.0135498,0.61035156,-2.4414062,-0.8544922
5727194,0.0048828125,-0.004638672,1.0135498,0.61035156,-2.4414062,-0.8544922
5727204,0.0043945312,-0.0034179688,1.0142822,0.48828125,-2.4414062,-0.7324219
5727204,0.0043945312,-0.0034179688,1.0142822,0.48828125,-2.4414062,-0.7324219
5727224,0.005004883,-0.0048828125,1.0151367,0.48828125,-2.5634766,-0.79345703
5727224,0.005004883,-0.0048828125,1.0151367,0.48828125,-2.5634766,-0.79345703
5727244,0.0043945312,-0.0040283203,1.0151367,0.48828125,-2.380371,-0.79345703
5727244,0.0043945312,-0.0040283203,1.0151367,0.48828125,-2.380371,-0.79345703
5727254,0.0043945312,-0.0040283203,1.0136719,0.48828125,-2.380371,-0.8544922
5727254,0.0043945312,-0.0040283203,1.0136719,0.48828125,-2.380371,-0.8544922
5727264,0.0045166016,-0.005126953,1.0148926,0.4272461,-2.4414062,-0.8544922
5727264,0.0045166016,-0.005126953,1.0148926,0.4272461,-2.4414062,-0.8544922
5727274,0.005126953,-0.005126953,1.0162354,0.48828125,-2.5634766,-0.91552734
5727274,0.005126953,-0.005126953,1.0162354,0.48828125,-2.5634766,-0.91552734
5727284,0.0036621094,-0.004638672,1.013916,0.48828125,-2.5024414,-0.8544922
5727294,0.004760742,-0.0041503906,1.0153809,0.48828125,-2.319336,-0.79345703
5727284,0.0036621094,-0.004638672,1.013916,0.48828125,-2.5024414,-0.8544922
5727304,0.0043945312,-0.0048828125,1.013916,0.48828125,-2.5024414,-0.79345703
5727294,0.004760742,-0.0041503906,1.0153809,0.48828125,-2.319336,-0.79345703
5727314,0.005004883,-0.0043945312,1.0155029,0.4272461,-2.4414062,-0.79345703
5727304,0.0043945312,-0.0048828125,1.013916,0.48828125,-2.5024414,-0.79345703
5727324,0.0037841797,-0.0036621094,1.0147705,0.48828125,-2.5024414,-0.79345703
5727314,0.005004883,-0.0043945312,1.0155029,0.4272461,-2.4414062,-0.79345703
5727324,0.0037841797,-0.0036621094,1.0147705,0.48828125,-2.5024414,-0.79345703
5727334,0.00390625,-0.0045166016,1.0151367,0.5493164,-2.5024414,-0.7324219
5727334,0.00390625,-0.0045166016,1.0151367,0.5493164,-2.5024414,-0.7324219
5727344,0.0037841797,-0.005004883,1.0144043,0.48828125,-2.4414062,-0.79345703
5727344,0.0037841797,-0.005004883,1.0144043,0.48828125,-2.4414062,-0.79345703
5727354,0.005859375,-0.0053710938,1.0159912,0.48828125,-2.4414062,-0.79345703
5727354,0.005859375,-0.0053710938,1.0159912,0.48828125,-2.4414062,-0.79345703
5727364,0.0056152344,-0.005004883,1.0159912,0.48828125,-2.4414062,-0.79345703
5727364,0.0056152344,-0.005004883,1.0159912,0.48828125,-2.4414062,-0.79345703
5727384,0.004638672,-0.0040283203,1.0150146,0.61035156,-2.4414062,-0.79345703
5727384,0.004638672,-0.0040283203,1.0150146,0.61035156,-2.4414062,-0.79345703
5727404,0.003540039,-0.0048828125,1.0151367,0.5493164,-2.380371,-0.79345703
5727404,0.003540039,-0.0048828125,1.0151367,0.5493164,-2.380371,-0.79345703
5727414,0.004272461,-0.0041503906,1.0155029,0.4272461,-2.4414062,-0.7324219
5727414,0.004272461,-0.0041503906,1.0155029,0.4272461,-2.4414062,-0.7324219
5727424,0.004760742,-0.00390625,1.0153809,0.48828125,-2.4414062,-0.8544922
5727424,0.004760742,-0.00390625,1.0153809,0.48828125,-2.4414062,-0.8544922
5727434,0.0034179688,-0.005126953,1.0142822,0.5493164,-2.5024414,-0.79345703
5727434,0.0034179688,-0.005126953,1.0142822,0.5493164,-2.5024414,-0.79345703
5727444,0.0048828125,-0.005859375,1.0159912,0.48828125,-2.5634766,-0.79345703
5727454,0.005126953,-0.0052490234,1.0158691,0.5493164,-2.5024414,-0.79345703
5727444,0.0048828125,-0.005859375,1.0159912,0.48828125,-2.5634766,-0.79345703
5727464,0.0048828125,-0.004760742,1.0155029,0.48828125,-2.319336,-0.8544922
5727454,0.005126953,-0.0052490234,1.0158691,0.5493164,-2.5024414,-0.79345703
5727474,0.0064697266,-0.005004883,1.0146484,0.5493164,-2.4414062,-0.8544922
5727464,0.0048828125,-0.004760742,1.0155029,0.48828125,-2.319336,-0.8544922
5727474,0.0064697266,-0.005004883,1.0146484,0.5493164,-2.4414062,-0.8544922
5727484,0.004272461,-0.0057373047,1.0153809,0.48828125,-2.5024414,-0.79345703
5727484,0.004272461,-0.0057373047,1.0153809,0.48828125,-2.5024414,-0.79345703
5727494,0.0045166016,-0.0048828125,1.0151367,0.4272461,-2.5024414,-0.7324219
5727494,0.0045166016,-0.0048828125,1.0151367,0.4272461,-2.5024414,-0.7324219
5727504,0.0037841797,-0.0056152344,1.0152588,0.48828125,-2.4414062,-0.79345703
5727504,0.0037841797,-0.0056152344,1.0152588,0.48828125,-2.4414062,-0.79345703
5727514,0.0043945312,-0.0041503906,1.0141602,0.48828125,-2.4414062,-0.79345703
5727514,0.0043945312,-0.0041503906,1.0141602,0.48828125,-2.4414062,-0.79345703
5727524,0.0037841797,-0.0040283203,1.0146484,0.48828125,-2.380371,-0.8544922
5727524,0.0037841797,-0.0040283203,1.0146484,0.48828125,-2.380371,-0.8544922
5727534,0.0043945312,-0.0052490234,1.0146484,0.4272461,-2.4414062,-0.8544922
5727534,0.0043945312,-0.0052490234,1.0146484,0.4272461,-2.4414062,-0.8544922
5727554,0.0043945312,-0.0045166016,1.0136719,0.4272461,-2.4414062,-0.8544922
5727554,0.0043945312,-0.0045166016,1.0136719,0.4272461,-2.4414062,-0.8544922
5727564,0.0048828125,-0.005004883,1.0141602,0.48828125,-2.4414062,-0.79345703
5727564,0.0048828125,-0.005004883,1.0141602,0.48828125,-2.4414062,-0.79345703
5727574,0.004760742,-0.0048828125,1.0150146,0.48828125,-2.4414062,-0.8544922
5727574,0.004760742,-0.0048828125,1.0150146,0.48828125,-2.4414062,-0.8544922
5727584,0.005004883,-0.004638672,1.0151367,0.48828125,-2.4414062,-0.8544922
5727584,0.005004883,-0.004638672,1.0151367,0.48828125,-2.4414062,-0.8544922
5727594,0.005493164,-0.004638672,1.0146484,0.4272461,-2.380371,-0.8544922
5727594,0.005493164,-0.004638672,1.0146484,0.4272461,-2.380371,-0.8544922
5727604,0.0045166016,-0.005004883,1.0157471,0.48828125,-2.380371,-0.91552734
5727604,0.0045166016,-0.005004883,1.0157471,0.48828125,-2.380371,-0.91552734
5727614,0.004638672,-0.005126953,1.0141602,0.4272461,-2.5024414,-0.7324219
5727614,0.004638672,-0.005126953,1.0141602,0.4272461,-2.5024414,-0.7324219
5727624,0.0041503906,-0.004272461,1.0151367,0.4272461,-2.4414062,-0.7324219
5727624,0.0041503906,-0.004272461,1.0151367,0.4272461,-2.4414062,-0.7324219
5727634,0.004272461,-0.0048828125,1.0153809,0.5493164,-2.5024414,-0.79345703
5727634,0.004272461,-0.0048828125,1.0153809,0.5493164,-2.5024414,-0.79345703
5727644,0.0040283203,-0.0045166016,1.0148926,0.5493164,-2.5634766,-0.7324219
5727654,0.0032958984,-0.004760742,1.0153809,0.36621094,-2.5634766,-0.79345703
5727644,0.0040283203,-0.0045166016,1.0148926,0.5493164,-2.5634766,-0.7324219
5727664,0.0041503906,-0.0041503906,1.0146484,0.4272461,-2.4414062,-0.79345703
5727654,0.0032958984,-0.004760742,1.0153809,0.36621094,-2.5634766,-0.79345703
5727674,0.0048828125,-0.004638672,1.0151367,0.4272461,-2.4414062,-0.8544922
5727664,0.0041503906,-0.0041503906,1.0146484,0.4272461,-2.4414062,-0.79345703
5727674,0.0048828125,-0.004638672,1.0151367,0.4272461,-2.4414062,-0.8544922
5727684,0.0043945312,-0.0043945312,1.0145264,0.4272461,-2.4414062,-0.79345703
5727684,0.0043945312,-0.0043945312,1.0145264,0.4272461,-2.4414062,-0.79345703
5727734,0.005126953,-0.0043945312,1.0159912,0.61035156,-2.5024414,-0.79345703
5727734,0.005126953,-0.0043945312,1.0159912,0.61035156,-2.5024414,-0.79345703
5727753,0.0048828125,-0.0043945312,1.0152588,0.48828125,-2.5634766,-0.79345703
5727753,0.0048828125,-0.0043945312,1.0152588,0.48828125,-2.5634766,-0.79345703
5727763,0.004272461,-0.00390625,1.0168457,0.48828125,-2.5024414,-0.79345703
5727773,0.0045166016,-0.004638672,1.0161133,0.48828125,-2.380371,-0.79345703
5727763,0.004272461,-0.00390625,1.0168457,0.48828125,-2.5024414,-0.79345703
5727773,0.0045166016,-0.004638672,1.0161133,0.48828125,-2.380371,-0.79345703
5727783,0.0045166016,-0.0048828125,1.0158691,0.48828125,-2.4414062,-0.8544922
5727783,0.0045166016,-0.0048828125,1.0158691,0.48828125,-2.4414062,-0.8544922
5727793,0.0032958984,-0.0052490234,1.0157471,0.48828125,-2.4414062,-0.79345703
5727793,0.0032958984,-0.0052490234,1.0157471,0.48828125,-2.4414062,-0.79345703
5727803,0.0032958984,-0.0043945312,1.0146484,0.48828125,-2.4414062,-0.79345703
5727803,0.0032958984,-0.0043945312,1.0146484,0.48828125,-2.4414062,-0.79345703
5727813,0.00390625,-0.004272461,1.0167236,0.48828125,-2.380371,-0.79345703
5727813,0.00390625,-0.004272461,1.0167236,0.48828125,-2.380371,-0.79345703
5727823,0.0037841797,-0.0045166016,1.0153809,0.48828125,-2.380371,-0.8544922
5727823,0.0037841797,-0.0045166016,1.0153809,0.48828125,-2.380371,-0.8544922
5727833,0.00390625,-0.005126953,1.0155029,0.48828125,-2.4414062,-0.8544922
5727833,0.00390625,-0.005126953,1.0155029,0.48828125,-2.4414062,-0.8544922
5727843,0.004272461,-0.0043945312,1.0141602,0.48828125,-2.4414062,-0.8544922
5727843,0.004272461,-0.0043945312,1.0141602,0.48828125,-2.4414062,-0.8544922
5727853,0.003540039,-0.0052490234,1.0151367,0.4272461,-2.4414062,-0.79345703
5727853,0.003540039,-0.0052490234,1.0151367,0.4272461,-2.4414062,-0.79345703
5727863,0.004272461,-0.0040283203,1.0161133,0.48828125,-2.4414062,-0.79345703
5727863,0.004272461,-0.0040283203,1.0161133,0.48828125,-2.4414062,-0.79345703
5727873,0.0048828125,-0.0056152344,1.0170898,0.5493164,-2.380371,-0.79345703
5727873,0.0048828125,-0.0056152344,1.0170898,0.5493164,-2.380371,-0.79345703
5727893,0.0041503906,-0.005493164,1.0145264,0.48828125,-2.5024414,-0.8544922
5727893,0.0041503906,-0.005493164,1.0145264,0.48828125,-2.5024414,-0.8544922
5727913,0.004760742,-0.0045166016,1.0155029,0.48828125,-2.4414062,-0.79345703
5727913,0.004760742,-0.0045166016,1.0155029,0.48828125,-2.4414062,-0.79345703
5727923,0.0040283203,-0.0037841797,1.0148926,0.4272461,-2.5024414,-0.79345703
5727923,0.0040283203,-0.0037841797,1.0148926,0.4272461,-2.5024414,-0.79345703
5727933,0.004760742,-0.005493164,1.0163574,0.48828125,-2.4414062,-0.79345703
5727943,0.0031738281,-0.004760742,1.0150146,0.48828125,-2.5024414,-0.79345703
5727933,0.004760742,-0.005493164,1.0163574,0.48828125,-2.4414062,-0.79345703
5727953,0.0037841797,-0.003540039,1.0151367,0.48828125,-2.5024414,-0.7324219
5727943,0.0031738281,-0.004760742,1.0150146,0.48828125,-2.5024414,-0.79345703
5727963,0.0034179688,-0.005004883,1.0161133,0.48828125,-2.4414062,-0.79345703
5727953,0.0037841797,-0.003540039,1.0151367,0.48828125,-2.5024414,-0.7324219
5727973,0.0040283203,-0.0045166016,1.0157471,0.48828125,-2.5024414,-0.7324219
5727963,0.0034179688,-0.005004883,1.0161133,0.48828125,-2.4414062,-0.79345703
5727983,0.004760742,-0.0048828125,1.0158691,0.5493164,-2.5024414,-0.79345703
5727973,0.0040283203,-0.0045166016,1.0157471,0.48828125,-2.5024414,-0.7324219
5727983,0.004760742,-0.0048828125,1.0158691,0.5493164,-2.5024414,-0.79345703
5727993,0.005126953,-0.0040283203,1.0161133,0.48828125,-2.4414062,-0.79345703
5728003,0.005493164,-0.0043945312,1.0153809,0.5493164,-2.4414062,-0.8544922
5727993,0.005126953,-0.0040283203,1.0161133,0.48828125,-2.4414062,-0.79345703
5728013,0.0052490234,-0.0048828125,1.0168457,0.48828125,-2.380371,-0.79345703
5728023,0.003540039,-0.004638672,1.0166016,0.5493164,-2.5024414,-0.8544922
5728003,0.005493164,-0.0043945312,1.0153809,0.5493164,-2.4414062,-0.8544922
5728013,0.0052490234,-0.0048828125,1.0168457,0.48828125,-2.380371,-0.79345703
5728023,0.003540039,-0.004638672,1.0166016,0.5493164,-2.5024414,-0.8544922
5728033,0.005126953,-0.004638672,1.0167236,0.5493164,-2.5024414,-0.79345703
5728033,0.005126953,-0.004638672,1.0167236,0.5493164,-2.5024414,-0.79345703
5728043,0.0053710938,-0.0048828125,1.0163574,0.48828125,-2.4414062,-0.8544922
5728043,0.0053710938,-0.0048828125,1.0163574,0.48828125,-2.4414062,-0.8544922
5728063,0.0043945312,-0.0034179688,1.0168457,0.4272461,-2.380371,-0.79345703
5728063,0.0043945312,-0.0034179688,1.0168457,0.4272461,-2.380371,-0.79345703
5728073,0.0043945312,-0.0048828125,1.0167236,0.4272461,-2.5024414,-0.7324219
5728073,0.0043945312,-0.0048828125,1.0167236,0.4272461,-2.5024414,-0.7324219
5728083,0.0045166016,-0.004638672,1.0162354,0.48828125,-2.5634766,-0.79345703
5728083,0.0045166016,-0.004638672,1.0162354,0.48828125,-2.5634766,-0.79345703
5728093,0.0052490234,-0.0043945312,1.0162354,0.4272461,-2.4414062,-0.79345703
5728093,0.0052490234,-0.0043945312,1.0162354,0.4272461,-2.4414062,-0.79345703
5728103,0.0045166016,-0.004638672,1.0153809,0.4272461,-2.380371,-0.91552734
5728103,0.0045166016,-0.004638672,1.0153809,0.4272461,-2.380371,-0.91552734
5728113,0.005004883,-0.0052490234,1.0162354,0.48828125,-2.380371,-0.91552734
5728113,0.005004883,-0.0052490234,1.0162354,0.48828125,-2.380371,-0.91552734
5728123,0.004638672,-0.0045166016,1.0153809,0.4272461,-2.5024414,-0.7324219
5728123,0.004638672,-0.0045166016,1.0153809,0.4272461,-2.5024414,-0.7324219
5728133,0.00390625,-0.005004883,1.0161133,0.4272461,-2.5024414,-0.8544922
5728133,0.00390625,-0.005004883,1.0161133,0.4272461,-2.5024414,-0.8544922
5728143,0.0043945312,-0.004760742,1.0157471,0.4272461,-2.380371,-0.91552734
5728153,0.0045166016,-0.0048828125,1.0161133,0.5493164,-2.5024414,-0.8544922
5728143,0.0043945312,-0.004760742,1.0157471,0.4272461,-2.380371,-0.91552734
5728163,0.004760742,-0.004638672,1.0161133,0.48828125,-2.5024414,-0.79345703
5728153,0.0045166016,-0.0048828125,1.0161133,0.5493164,-2.5024414,-0.8544922
5728173,0.00390625,-0.005004883,1.0159912,0.48828125,-2.4414062,-0.8544922
5728163,0.004760742,-0.004638672,1.0161133,0.48828125,-2.5024414,-0.79345703
5728173,0.00390625,-0.005004883,1.0159912,0.48828125,-2.4414062,-0.8544922
5728183,0.004760742,-0.004638672,1.0161133,0.48828125,-2.380371,-0.79345703
5728183,0.004760742,-0.004638672,1.0161133,0.48828125,-2.380371,-0.79345703
5728193,0.005493164,-0.004272461,1.0162354,0.48828125,-2.380371,-0.79345703
5728193,0.005493164,-0.004272461,1.0162354,0.48828125,-2.380371,-0.79345703
5728203,0.005004883,-0.004638672,1.0168457,0.48828125,-2.380371,-0.79345703
5728203,0.005004883,-0.004638672,1.0168457,0.48828125,-2.380371,-0.79345703
5728223,0.0052490234,-0.004272461,1.015625,0.4272461,-2.5024414,-0.79345703
5728223,0.0052490234,-0.004272461,1.015625,0.4272461,-2.5024414,-0.79345703
5728243,0.0053710938,-0.0043945312,1.0162354,0.48828125,-2.4414062,-0.91552734
5728243,0.0053710938,-0.0043945312,1.0162354,0.48828125,-2.4414062,-0.91552734
5728253,0.0041503906,-0.003540039,1.0162354,0.4272461,-2.380371,-0.8544922
5728253,0.0041503906,-0.003540039,1.0162354,0.4272461,-2.380371,-0.8544922
5728263,0.0043945312,-0.004760742,1.0151367,0.4272461,-2.380371,-0.8544922
5728263,0.0043945312,-0.004760742,1.0151367,0.4272461,-2.380371,-0.8544922
5728273,0.004638672,-0.0048828125,1.0155029,0.4272461,-2.4414062,-0.79345703
5728283,0.004272461,-0.0043945312,1.0151367,0.48828125,-2.5024414,-0.79345703
5728273,0.004638672,-0.0048828125,1.0155029,0.4272461,-2.4414062,-0.79345703
5728293,0.0048828125,-0.004760742,1.0152588,0.5493164,-2.5024414,-0.6713867
5728283,0.004272461,-0.0043945312,1.0151367,0.48828125,-2.5024414,-0.79345703
5728293,0.0048828125,-0.004760742,1.0152588,0.5493164,-2.5024414,-0.6713867
5728303,0.004272461,-0.0045166016,1.0148926,0.48828125,-2.5024414,-0.7324219
5728313,0.0037841797,-0.0043945312,1.0158691,0.4272461,-2.5024414,-0.79345703
5728303,0.004272461,-0.0045166016,1.0148926,0.48828125,-2.5024414,-0.7324219
5728323,0.0048828125,-0.0053710938,1.0159912,0.4272461,-2.5024414,-0.79345703
5728333,0.004272461,-0.004638672,1.0155029,0.4272461,-2.4414062,-0.79345703
5728313,0.0037841797,-0.0043945312,1.0158691,0.4272461,-2.5024414,-0.79345703
5728323,0.0048828125,-0.0053710938,1.0159912,0.4272461,-2.5024414,-0.79345703
5728333,0.004272461,-0.004638672,1.0155029,0.4272461,-2.4414062,-0.79345703
5728343,0.0045166016,-0.004760742,1.0148926,0.48828125,-2.380371,-0.8544922
5728343,0.0045166016,-0.004760742,1.0148926,0.48828125,-2.380371,-0.8544922
5728353,0.0045166016,-0.0052490234,1.0153809,0.4272461,-2.380371,-0.8544922
5728363,0.005004883,-0.0045166016,1.0147705,0.4272461,-2.4414062,-0.79345703
5728353,0.0045166016,-0.0052490234,1.0153809,0.4272461,-2.380371,-0.8544922
5728383,0.004760742,-0.004272461,1.0140381,0.4272461,-2.5634766,-0.6713867
5728403,0.00390625,-0.004760742,1.0152588,0.5493164,-2.380371,-0.8544922
5728363,0.005004883,-0.0045166016,1.0147705,0.4272461,-2.4414062,-0.79345703
5728413,0.004272461,-0.0041503906,1.0164795,0.48828125,-2.380371,-0.79345703
5728423,0.004638672,-0.005126953,1.0161133,0.36621094,-2.5024414,-0.7324219
5728383,0.004760742,-0.004272461,1.0140381,0.4272461,-2.5634766,-0.6713867
5728433,0.0048828125,-0.004760742,1.0158691,0.4272461,-2.5024414,-0.79345703
5728443,0.0043945312,-0.004638672,1.0150146,0.4272461,-2.380371,-0.8544922
5728403,0.00390625,-0.004760742,1.0152588,0.5493164,-2.380371,-0.8544922
5728453,0.0048828125,-0.0030517578,1.0178223,0.48828125,-2.319336,-0.79345703
5728413,0.004272461,-0.0041503906,1.0164795,0.48828125,-2.380371,-0.79345703
5728423,0.004638672,-0.005126953,1.0161133,0.36621094,-2.5024414,-0.7324219
5728463,0.0043945312,-0.0043945312,1.0146484,0.48828125,-2.4414062,-0.91552734
5728433,0.0048828125,-0.004760742,1.0158691,0.4272461,-2.5024414,-0.79345703
5728443,0.0043945312,-0.004638672,1.0150146,0.4272461,-2.380371,-0.8544922
5728453,0.0048828125,-0.0030517578,1.0178223,0.48828125,-2.319336,-0.79345703
5728473,0.0041503906,-0.0048828125,1.0155029,0.48828125,-2.5024414,-0.8544922
5728463,0.0043945312,-0.0043945312,1.0146484,0.48828125,-2.4414062,-0.91552734
5728483,0.0041503906,-0.004760742,1.0151367,0.48828125,-2.4414062,-0.79345703
5728493,0.003540039,-0.0048828125,1.0161133,0.48828125,-2.380371,-0.79345703
5728503,0.0037841797,-0.0045166016,1.0157471,0.48828125,-2.5024414,-0.8544922
5728513,0.0043945312,-0.004760742,1.0155029,0.4272461,-2.5024414,-0.79345703
5728523,0.004760742,-0.0048828125,1.0145264,0.48828125,-2.5634766,-0.79345703
5728473,0.0041503906,-0.0048828125,1.0155029,0.48828125,-2.5024414,-0.8544922
5728483,0.0041503906,-0.004760742,1.0151367,0.48828125,-2.4414062,-0.79345703
5728493,0.003540039,-0.0048828125,1.0161133,0.48828125,-2.380371,-0.79345703
5728533,0.005126953,-0.0053710938,1.0159912,0.48828125,-2.5634766,-0.79345703
5728503,0.0037841797,-0.0045166016,1.0157471,0.48828125,-2.5024414,-0.8544922
5728553,0.004638672,-0.0048828125,1.0153809,0.48828125,-2.5024414,-0.79345703
5728513,0.0043945312,-0.004760742,1.0155029,0.4272461,-2.5024414,-0.79345703
5728573,0.005126953,-0.004272461,1.0152588,0.48828125,-2.5024414,-0.79345703
5728523,0.004760742,-0.0048828125,1.0145264,0.48828125,-2.5634766,-0.79345703
5728533,0.005126953,-0.0053710938,1.0159912,0.48828125,-2.5634766,-0.79345703
5728553,0.004638672,-0.0048828125,1.0153809,0.48828125,-2.5024414,-0.79345703
5728573,0.005126953,-0.004272461,1.0152588,0.48828125,-2.5024414,-0.79345703
5728583,0.005004883,-0.0048828125,1.0150146,0.48828125,-2.5024414,-0.8544922
5728583,0.005004883,-0.0048828125,1.0150146,0.48828125,-2.5024414,-0.8544922
5728593,0.0043945312,-0.0045166016,1.0142822,0.4272461,-2.5024414,-0.79345703
5728603,0.005004883,-0.004760742,1.0155029,0.4272461,-2.5024414,-0.7324219
5728593,0.0043945312,-0.0045166016,1.0142822,0.4272461,-2.5024414,-0.79345703
5728613,0.004760742,-0.004272461,1.0150146,0.48828125,-2.5024414,-0.79345703
5728603,0.005004883,-0.004760742,1.0155029,0.4272461,-2.5024414,-0.7324219
5728623,0.004760742,-0.0040283203,1.0150146,0.4272461,-2.4414062,-0.79345703
5728613,0.004760742,-0.004272461,1.0150146,0.48828125,-2.5024414,-0.79345703
5728633,0.0043945312,-0.0043945312,1.0150146,0.4272461,-2.380371,-0.79345703
5728623,0.004760742,-0.0040283203,1.0150146,0.4272461,-2.4414062,-0.79345703
5728633,0.0043945312,-0.0043945312,1.0150146,0.4272461,-2.380371,-0.79345703
5728643,0.0040283203,-0.0048828125,1.0150146,0.48828125,-2.4414062,-0.7324219
5728653,0.0056152344,-0.0037841797,1.0153809,0.4272461,-2.380371,-0.8544922
5728643,0.0040283203,-0.0048828125,1.0150146,0.48828125,-2.4414062,-0.7324219
5728653,0.0056152344,-0.0037841797,1.0153809,0.4272461,-2.380371,-0.8544922
5728663,0.0041503906,-0.004760742,1.0133057,0.48828125,-2.4414062,-0.8544922
5728663,0.0041503906,-0.004760742,1.0133057,0.48828125,-2.4414062,-0.8544922
5728673,0.0040283203,-0.0053710938,1.0159912,0.48828125,-2.5024414,-0.79345703
5728673,0.0040283203,-0.0053710938,1.0159912,0.48828125,-2.5024414,-0.79345703
5728683,0.004272461,-0.0041503906,1.0147705,0.36621094,-2.4414062,-0.8544922
5728683,0.004272461,-0.0041503906,1.0147705,0.36621094,-2.4414062,-0.8544922
5728693,0.0041503906,-0.004760742,1.0152588,0.4272461,-2.380371,-0.9765625
5728693,0.0041503906,-0.004760742,1.0152588,0.4272461,-2.380371,-0.9765625
5728713,0.0045166016,-0.0043945312,1.013794,0.48828125,-2.5024414,-0.8544922
5728713,0.0045166016,-0.0043945312,1.013794,0.48828125,-2.5024414,-0.8544922
5728733,0.005126953,-0.0053710938,1.0163574,0.48828125,-2.6245117,-0.79345703
5728733,0.005126953,-0.0053710938,1.0163574,0.48828125,-2.6245117,-0.79345703
5728743,0.0043945312,-0.005004883,1.0157471,0.5493164,-2.6245117,-0.79345703
5728743,0.0043945312,-0.005004883,1.0157471,0.5493164,-2.6245117,-0.79345703
5728753,0.004272461,-0.005004883,1.0162354,0.48828125,-2.5634766,-0.79345703
5728753,0.004272461,-0.005004883,1.0162354,0.48828125,-2.5634766,-0.79345703
5728763,0.0045166016,-0.0048828125,1.0158691,0.48828125,-2.5634766,-0.79345703
5728763,0.0045166016,-0.0048828125,1.0158691,0.48828125,-2.5634766,-0.79345703
5728773,0.0041503906,-0.0048828125,1.0141602,0.48828125,-2.4414062,-0.79345703
5728773,0.0041503906,-0.0048828125,1.0141602,0.48828125,-2.4414062,-0.79345703
5728783,0.0043945312,-0.004638672,1.0145264,0.48828125,-2.4414062,-0.8544922
5728783,0.0043945312,-0.004638672,1.0145264,0.48828125,-2.4414062,-0.8544922
5728793,0.0056152344,-0.005004883,1.0145264,0.4272461,-2.4414062,-0.8544922
5728793,0.0056152344,-0.005004883,1.0145264,0.4272461,-2.4414062,-0.8544922
5728803,0.004638672,-0.0052490234,1.0151367,0.4272461,-2.380371,-0.91552734
5728803,0.004638672,-0.0052490234,1.0151367,0.4272461,-2.380371,-0.91552734
5728813,0.005004883,-0.004760742,1.0159912,0.48828125,-2.4414062,-0.8544922
5728813,0.005004883,-0.004760742,1.0159912,0.48828125,-2.4414062,-0.8544922
5728823,0.004760742,-0.0037841797,1.0151367,0.4272461,-2.4414062,-0.79345703
5728823,0.004760742,-0.0037841797,1.0151367,0.4272461,-2.4414062,-0.79345703
5728833,0.0037841797,-0.004638672,1.0150146,0.4272461,-2.4414062,-0.79345703
5728833,0.0037841797,-0.004638672,1.0150146,0.4272461,-2.4414062,-0.79345703
5728843,0.0041503906,-0.004760742,1.013794,0.5493164,-2.5634766,-0.79345703
5728843,0.0041503906,-0.004760742,1.013794,0.5493164,-2.5634766,-0.79345703
5728853,0.0036621094,-0.00390625,1.0148926,0.48828125,-2.5024414,-0.79345703
5728853,0.0036621094,-0.00390625,1.0148926,0.48828125,-2.5024414,-0.79345703
5728863,0.0034179688,-0.004638672,1.0159912,0.48828125,-2.5024414,-0.79345703
5728883,0.003540039,-0.004760742,1.0164795,0.48828125,-2.4414062,-0.8544922
5728863,0.0034179688,-0.004638672,1.0159912,0.48828125,-2.5024414,-0.79345703
5728883,0.003540039,-0.004760742,1.0164795,0.48828125,-2.4414062,-0.8544922
5728903,0.004760742,-0.005126953,1.0162354,0.48828125,-2.5634766,-0.7324219
5728903,0.004760742,-0.005126953,1.0162354,0.48828125,-2.5634766,-0.7324219
5728913,0.00390625,-0.004272461,1.0159912,0.48828125,-2.6245117,-0.79345703
5728913,0.00390625,-0.004272461,1.0159912,0.48828125,-2.6245117,-0.79345703
5728923,0.0043945312,-0.005126953,1.0157471,0.48828125,-2.4414062,-0.79345703
5728923,0.0043945312,-0.005126953,1.0157471,0.48828125,-2.4414062,-0.79345703
5728933,0.0045166016,-0.0043945312,1.0146484,0.4272461,-2.4414062,-0.8544922
5728933,0.0045166016,-0.0043945312,1.0146484,0.4272461,-2.4414062,-0.8544922
5728943,0.004638672,-0.0052490234,1.0164795,0.4272461,-2.4414062,-0.8544922
5728943,0.004638672,-0.0052490234,1.0164795,0.4272461,-2.4414062,-0.8544922
5728953,0.0031738281,-0.0052490234,1.0166016,0.48828125,-2.4414062,-0.8544922
5728953,0.0031738281,-0.0052490234,1.0166016,0.48828125,-2.4414062,-0.8544922
5728963,0.0048828125,-0.0045166016,1.0151367,0.48828125,-2.4414062,-0.91552734
5728963,0.0048828125,-0.0045166016,1.0151367,0.48828125,-2.4414062,-0.91552734
5728973,0.00390625,-0.004638672,1.0150146,0.4272461,-2.380371,-0.91552734
5728973,0.00390625,-0.004638672,1.0150146,0.4272461,-2.380371,-0.91552734
5728983,0.0045166016,-0.004760742,1.0146484,0.48828125,-2.4414062,-0.8544922
5728983,0.0045166016,-0.004760742,1.0146484,0.48828125,-2.4414062,-0.8544922
5728993,0.0036621094,-0.004760742,1.0150146,0.5493164,-2.5634766,-0.79345703
5729003,0.004760742,-0.0043945312,1.0155029,0.48828125,-2.4414062,-0.8544922
5728993,0.0036621094,-0.004760742,1.0150146,0.5493164,-2.5634766,-0.79345703
5729013,0.0041503906,-0.004760742,1.0145264,0.48828125,-2.5024414,-0.91552734
5729003,0.004760742,-0.0043945312,1.0155029,0.48828125,-2.4414062,-0.8544922
5729023,0.0041503906,-0.0048828125,1.0152588,0.4272461,-2.5024414,-0.79345703
5729013,0.0041503906,-0.004760742,1.0145264,0.48828125,-2.5024414,-0.91552734
5729023,0.0041503906,-0.0048828125,1.0152588,0.4272461,-2.5024414,-0.79345703
5729043,0.0032958984,-0.0053710938,1.0150146,0.36621094,-2.5024414,-0.7324219
5729043,0.0032958984,-0.0053710938,1.0150146,0.36621094,-2.5024414,-0.7324219
5729063,0.004272461,-0.0043945312,1.0155029,0.5493164,-2.5024414,-0.79345703
5729063,0.004272461,-0.0043945312,1.0155029,0.5493164,-2.5024414,-0.79345703
5729073,0.0036621094,-0.005493164,1.0155029,0.4272461,-2.380371,-0.79345703
5729073,0.0036621094,-0.005493164,1.0155029,0.4272461,-2.380371,-0.79345703
5729083,0.0040283203,-0.005004883,1.015625,0.4272461,-2.4414062,-0.8544922
5729083,0.0040283203,-0.005004883,1.015625,0.4272461,-2.4414062,-0.8544922
5729093,0.0053710938,-0.004638672,1.0166016,0.48828125,-2.4414062,-0.8544922
5729093,0.0053710938,-0.004638672,1.0166016,0.48828125,-2.4414062,-0.8544922
5729103,0.004272461,-0.0048828125,1.0162354,0.48828125,-2.380371,-0.8544922
5729103,0.004272461,-0.0048828125,1.0162354,0.48828125,-2.380371,-0.8544922
5729113,0.0036621094,-0.0045166016,1.0161133,0.5493164,-2.4414062,-0.8544922
5729113,0.0036621094,-0.0045166016,1.0161133,0.5493164,-2.4414062,-0.8544922
5729123,0.004272461,-0.004638672,1.0162354,0.5493164,-2.5024414,-0.79345703
5729133,0.0045166016,-0.0057373047,1.0175781,0.48828125,-2.4414062,-0.8544922
5729123,0.004272461,-0.004638672,1.0162354,0.5493164,-2.5024414,-0.79345703
5729133,0.0045166016,-0.0057373047,1.0175781,0.48828125,-2.4414062,-0.8544922
5729143,0.0045166016,-0.0043945312,1.0168457,0.48828125,-2.380371,-0.79345703
5729143,0.0045166016,-0.0043945312,1.0168457,0.48828125,-2.380371,-0.79345703
5729153,0.0040283203,-0.004638672,1.0151367,0.4272461,-2.4414062,-0.79345703
5729153,0.0040283203,-0.004638672,1.0151367,0.4272461,-2.4414062,-0.79345703
5729163,0.0041503906,-0.0048828125,1.0167236,0.48828125,-2.4414062,-0.8544922
5729173,0.004272461,-0.005004883,1.0164795,0.48828125,-2.4414062,-0.8544922
5729163,0.0041503906,-0.0048828125,1.0167236,0.48828125,-2.4414062,-0.8544922
5729173,0.004272461,-0.005004883,1.0164795,0.48828125,-2.4414062,-0.8544922
5729183,0.0036621094,-0.005493164,1.0162354,0.48828125,-2.5024414,-0.7324219
5729183,0.0036621094,-0.005493164,1.0162354,0.48828125,-2.5024414,-0.7324219
5729193,0.0040283203,-0.0056152344,1.0164795,0.5493164,-2.4414062,-0.8544922
5729193,0.0040283203,-0.0056152344,1.0164795,0.5493164,-2.4414062,-0.8544922
5729213,0.0037841797,-0.005004883,1.0152588,0.48828125,-2.4414062,-0.8544922
5729213,0.0037841797,-0.005004883,1.0152588,0.48828125,-2.4414062,-0.8544922
5729223,0.005126953,-0.004760742,1.0170898,0.48828125,-2.4414062,-0.8544922
5729223,0.005126953,-0.004760742,1.0170898,0.48828125,-2.4414062,-0.8544922
5729233,0.005493164,-0.004760742,1.0172119,0.4272461,-2.5024414,-0.8544922
5729233,0.005493164,-0.004760742,1.0172119,0.4272461,-2.5024414,-0.8544922
5729243,0.0043945312,-0.004760742,1.0155029,0.48828125,-2.5024414,-0.79345703
5729243,0.0043945312,-0.004760742,1.0155029,0.48828125,-2.5024414,-0.79345703
5729253,0.0032958984,-0.0043945312,1.0163574,0.4272461,-2.4414062,-0.8544922
5729253,0.0032958984,-0.0043945312,1.0163574,0.4272461,-2.4414062,-0.8544922
5729263,0.0040283203,-0.004638672,1.0164795,0.4272461,-2.4414062,-0.8544922
5729263,0.0040283203,-0.004638672,1.0164795,0.4272461,-2.4414062,-0.8544922
5729273,0.004760742,-0.0043945312,1.0166016,0.5493164,-2.5024414,-0.8544922
5729283,0.005004883,-0.004638672,1.017334,0.48828125,-2.4414062,-0.79345703
5729273,0.004760742,-0.0043945312,1.0166016,0.5493164,-2.5024414,-0.8544922
5729283,0.005004883,-0.004638672,1.017334,0.48828125,-2.4414062,-0.79345703
5729293,0.0048828125,-0.005004883,1.0164795,0.5493164,-2.4414062,-0.8544922
5729293,0.0048828125,-0.005004883,1.0164795,0.5493164,-2.4414062,-0.8544922
5729303,0.0037841797,-0.0045166016,1.0167236,0.5493164,-2.4414062,-0.8544922
5729303,0.0037841797,-0.0045166016,1.0167236,0.5493164,-2.4414062,-0.8544922
5729313,0.004272461,-0.005004883,1.015625,0.48828125,-2.4414062,-0.8544922
5729313,0.004272461,-0.005004883,1.015625,0.48828125,-2.4414062,-0.8544922
5729323,0.0045166016,-0.004760742,1.0162354,0.4272461,-2.4414062,-0.8544922
5729323,0.0045166016,-0.004760742,1.0162354,0.4272461,-2.4414062,-0.8544922
5729333,0.004638672,-0.0052490234,1.017456,0.4272461,-2.4414062,-0.8544922
5729333,0.004638672,-0.0052490234,1.017456,0.4272461,-2.4414062,-0.8544922
5729343,0.0037841797,-0.004760742,1.0172119,0.48828125,-2.4414062,-0.79345703
5729353,0.0048828125,-0.0052490234,1.0164795,0.48828125,-2.5024414,-0.8544922
5729343,0.0037841797,-0.004760742,1.0172119,0.48828125,-2.4414062,-0.79345703
5729373,0.0045166016,-0.0040283203,1.0172119,0.48828125,-2.380371,-0.8544922
5729353,0.0048828125,-0.0052490234,1.0164795,0.48828125,-2.5024414,-0.8544922
5729373,0.0045166016,-0.0040283203,1.0172119,0.48828125,-2.380371,-0.8544922
5729393,0.0043945312,-0.004638672,1.0169678,0.5493164,-2.4414062,-0.7324219
5729403,0.0057373047,-0.0048828125,1.0163574,0.5493164,-2.4414062,-0.79345703
5729393,0.0043945312,-0.004638672,1.0169678,0.5493164,-2.4414062,-0.7324219
5729413,0.0048828125,-0.0045166016,1.0168457,0.61035156,-2.5024414,-0.79345703
5729423,0.00390625,-0.004638672,1.0163574,0.61035156,-2.5024414,-0.79345703
5729403,0.0057373047,-0.0048828125,1.0163574,0.5493164,-2.4414062,-0.79345703
5729413,0.0048828125,-0.0045166016,1.0168457,0.61035156,-2.5024414,-0.79345703
5729423,0.00390625,-0.004638672,1.0163574,0.61035156,-2.5024414,-0.79345703
5729433,0.004272461,-0.0043945312,1.0153809,0.5493164,-2.5024414,-0.79345703
5729433,0.004272461,-0.0043945312,1.0153809,0.5493164,-2.5024414,-0.79345703
5729443,0.0045166016,-0.005126953,1.0158691,0.48828125,-2.380371,-0.79345703
5729443,0.0045166016,-0.005126953,1.0158691,0.48828125,-2.380371,-0.79345703
5729453,0.004272461,-0.0041503906,1.0158691,0.48828125,-2.5024414,-0.8544922
5729453,0.004272461,-0.0041503906,1.0158691,0.48828125,-2.5024414,-0.8544922
5729463,0.005859375,-0.004760742,1.0162354,0.48828125,-2.5024414,-0.8544922
5729473,0.0045166016,-0.0052490234,1.0158691,0.48828125,-2.4414062,-0.79345703
5729483,0.0037841797,-0.0041503906,1.0161133,0.48828125,-2.5024414,-0.79345703
5729463,0.005859375,-0.004760742,1.0162354,0.48828125,-2.5024414,-0.8544922
5729473,0.0045166016,-0.0052490234,1.0158691,0.48828125,-2.4414062,-0.79345703
5729483,0.0037841797,-0.0041503906,1.0161133,0.48828125,-2.5024414,-0.79345703
5729493,0.0056152344,-0.004760742,1.0157471,0.5493164,-2.4414062,-0.7324219
5729493,0.0056152344,-0.004760742,1.0157471,0.5493164,-2.4414062,-0.7324219
5729503,0.0048828125,-0.0043945312,1.0153809,0.48828125,-2.380371,-0.8544922
5729513,0.0037841797,-0.005126953,1.0153809,0.4272461,-2.4414062,-0.79345703
5729503,0.0048828125,-0.0043945312,1.0153809,0.48828125,-2.380371,-0.8544922
5729513,0.0037841797,-0.005126953,1.0153809,0.4272461,-2.4414062,-0.79345703
5729533,0.005004883,-0.0045166016,1.0163574,0.4272461,-2.380371,-0.91552734
5729533,0.005004883,-0.0045166016,1.0163574,0.4272461,-2.380371,-0.91552734
5729553,0.004638672,-0.0040283203,1.0163574,0.48828125,-2.380371,-0.79345703
5729563,0.004638672,-0.004638672,1.0153809,0.48828125,-2.380371,-0.7324219
5729573,0.0048828125,-0.0036621094,1.0168457,0.48828125,-2.4414062,-0.79345703
5729553,0.004638672,-0.0040283203,1.0163574,0.48828125,-2.380371,-0.79345703
5729563,0.004638672,-0.004638672,1.0153809,0.48828125,-2.380371,-0.7324219
5729573,0.0048828125,-0.0036621094,1.0168457,0.48828125,-2.4414062,-0.79345703
5729583,0.003540039,-0.0041503906,1.0157471,0.4272461,-2.4414062,-0.79345703
5729583,0.003540039,-0.0041503906,1.0157471,0.4272461,-2.4414062,-0.79345703
5729593,0.0037841797,-0.0045166016,1.0155029,0.36621094,-2.380371,-0.79345703
5729593,0.0037841797,-0.0045166016,1.0155029,0.36621094,-2.380371,-0.79345703
5729603,0.0041503906,-0.004638672,1.0166016,0.48828125,-2.4414062,-0.79345703
5729603,0.0041503906,-0.004638672,1.0166016,0.48828125,-2.4414062,-0.79345703
5729613,0.0045166016,-0.004760742,1.0157471,0.4272461,-2.4414062,-0.8544922
5729613,0.0045166016,-0.004760742,1.0157471,0.4272461,-2.4414062,-0.8544922
5729623,0.004638672,-0.004272461,1.0158691,0.4272461,-2.4414062,-0.8544922
5729623,0.004638672,-0.004272461,1.0158691,0.4272461,-2.4414062,-0.8544922
5729633,0.00390625,-0.0045166016,1.0157471,0.48828125,-2.5024414,-0.8544922
5729633,0.00390625,-0.0045166016,1.0157471,0.48828125,-2.5024414,-0.8544922
5729643,0.004272461,-0.004638672,1.0158691,0.48828125,-2.5024414,-0.8544922
5729643,0.004272461,-0.004638672,1.0158691,0.48828125,-2.5024414,-0.8544922
5729653,0.004760742,-0.004638672,1.0161133,0.48828125,-2.4414062,-0.8544922
5729653,0.004760742,-0.004638672,1.0161133,0.48828125,-2.4414062,-0.8544922
5729663,0.0048828125,-0.0048828125,1.0162354,0.48828125,-2.380371,-0.8544922
5729663,0.0048828125,-0.0048828125,1.0162354,0.48828125,-2.380371,-0.8544922
5729673,0.0045166016,-0.0043945312,1.0159912,0.48828125,-2.4414062,-0.79345703
5729673,0.0045166016,-0.0043945312,1.0159912,0.48828125,-2.4414062,-0.79345703
5729683,0.004760742,-0.0045166016,1.0167236,0.48828125,-2.5024414,-0.8544922
5729683,0.004760742,-0.0045166016,1.0167236,0.48828125,-2.5024414,-0.8544922
5729703,0.005493164,-0.0043945312,1.017456,0.4272461,-2.5024414,-0.8544922
5729703,0.005493164,-0.0043945312,1.017456,0.4272461,-2.5024414,-0.8544922
5729723,0.005126953,-0.004272461,1.0178223,0.4272461,-2.4414062,-0.79345703
5729723,0.005126953,-0.004272461,1.0178223,0.4272461,-2.4414062,-0.79345703
5729733,0.004760742,-0.004638672,1.0179443,0.4272461,-2.5634766,-0.79345703
5729733,0.004760742,-0.004638672,1.0179443,0.4272461,-2.5634766,-0.79345703
5729743,0.0057373047,-0.004272461,1.0168457,0.4272461,-2.5634766,-0.8544922
5729743,0.0057373047,-0.004272461,1.0168457,0.4272461,-2.5634766,-0.8544922
5729753,0.0048828125,-0.0052490234,1.0172119,0.48828125,-2.4414062,-0.8544922
5729753,0.0048828125,-0.0052490234,1.0172119,0.48828125,-2.4414062,-0.8544922
5729763,0.0043945312,-0.004638672,1.0161133,0.5493164,-2.4414062,-0.8544922
5729763,0.0043945312,-0.004638672,1.0161133,0.5493164,-2.4414062,-0.8544922
5729773,0.0043945312,-0.004760742,1.0164795,0.48828125,-2.5024414,-0.8544922
5729773,0.0043945312,-0.004760742,1.0164795,0.48828125,-2.5024414,-0.8544922
5729783,0.0041503906,-0.004638672,1.0163574,0.48828125,-2.4414062,-0.8544922
5729783,0.0041503906,-0.004638672,1.0163574,0.48828125,-2.4414062,-0.8544922
5729793,0.005493164,-0.004272461,1.0178223,0.48828125,-2.4414062,-0.79345703
5729793,0.005493164,-0.004272461,1.0178223,0.48828125,-2.4414062,-0.79345703
5729803,0.0041503906,-0.004760742,1.0159912,0.4272461,-2.4414062,-0.79345703
5729803,0.0041503906,-0.004760742,1.0159912,0.4272461,-2.4414062,-0.79345703
5729813,0.004638672,-0.0041503906,1.015625,0.4272461,-2.4414062,-0.79345703
5729823,0.0041503906,-0.0043945312,1.0168457,0.4272461,-2.4414062,-0.8544922
5729813,0.004638672,-0.0041503906,1.015625,0.4272461,-2.4414062,-0.79345703
5729823,0.0041503906,-0.0043945312,1.0168457,0.4272461,-2.4414062,-0.8544922
5729833,0.005126953,-0.0040283203,1.0162354,0.48828125,-2.4414062,-0.8544922
5729833,0.005126953,-0.0040283203,1.0162354,0.48828125,-2.4414062,-0.8544922
5729843,0.004638672,-0.00390625,1.0186768,0.48828125,-2.5634766,-0.79345703
5729843,0.004638672,-0.00390625,1.0186768,0.48828125,-2.5634766,-0.79345703
5729863,0.0052490234,-0.0040283203,1.017456,0.4272461,-2.5024414,-0.8544922
5729863,0.0052490234,-0.0040283203,1.017456,0.4272461,-2.5024414,-0.8544922
5729883,0.0052490234,-0.004638672,1.0175781,0.4272461,-2.4414062,-0.79345703
5729893,0.0048828125,-0.0045166016,1.0164795,0.4272461,-2.4414062,-0.79345703
5729883,0.0052490234,-0.004638672,1.0175781,0.4272461,-2.4414062,-0.79345703
5729893,0.0048828125,-0.0045166016,1.0164795,0.4272461,-2.4414062,-0.79345703
5729903,0.005126953,-0.0041503906,1.017334,0.4272461,-2.380371,-0.7324219
5729903,0.005126953,-0.0041503906,1.017334,0.4272461,-2.380371,-0.7324219
5729913,0.005126953,-0.004272461,1.015625,0.5493164,-2.5024414,-0.7324219
5729913,0.005126953,-0.004272461,1.015625,0.5493164,-2.5024414,-0.7324219
5729923,0.0036621094,-0.0041503906,1.0180664,0.48828125,-2.4414062,-0.7324219
5729923,0.0036621094,-0.0041503906,1.0180664,0.48828125,-2.4414062,-0.7324219
5729933,0.00390625,-0.004272461,1.0166016,0.48828125,-2.5634766,-0.6713867
5729943,0.0045166016,-0.00390625,1.0175781,0.5493164,-2.5024414,-0.79345703
5729953,0.004272461,-0.0048828125,1.0179443,0.4272461,-2.4414062,-0.8544922
5729933,0.00390625,-0.004272461,1.0166016,0.48828125,-2.5634766,-0.6713867
5729943,0.0045166016,-0.00390625,1.0175781,0.5493164,-2.5024414,-0.79345703
5729953,0.004272461,-0.0048828125,1.0179443,0.4272461,-2.4414062,-0.8544922
5729963,0.004638672,-0.004760742,1.0172119,0.48828125,-2.4414062,-0.8544922
5729963,0.004638672,-0.004760742,1.0172119,0.48828125,-2.4414062,-0.8544922
5729973,0.0045166016,-0.005004883,1.0178223,0.4272461,-2.4414062,-0.79345703
5729973,0.0045166016,-0.005004883,1.0178223,0.4272461,-2.4414062,-0.79345703
5729983,0.00390625,-0.004638672,1.0169678,0.4272461,-2.4414062,-0.7324219
5729983,0.00390625,-0.004638672,1.0169678,0.4272461,-2.4414062,-0.7324219
5729993,0.0052490234,-0.0048828125,1.0169678,0.48828125,-2.4414062,-0.7324219
5729993,0.0052490234,-0.0048828125,1.0169678,0.48828125,-2.4414062,-0.7324219
5730003,0.0059814453,-0.004638672,1.0169678,0.48828125,-2.5024414,-0.7324219
5730003,0.0059814453,-0.004638672,1.0169678,0.48828125,-2.5024414,-0.7324219
5730013,0.0053710938,-0.004760742,1.017334,0.4272461,-2.4414062,-0.79345703
5730013,0.0053710938,-0.004760742,1.017334,0.4272461,-2.4414062,-0.79345703
5730033,0.004760742,-0.0030517578,1.0183105,0.5493164,-2.4414062,-0.79345703
5730033,0.004760742,-0.0030517578,1.0183105,0.5493164,-2.4414062,-0.79345703
5730053,0.0041503906,-0.0048828125,1.0177002,0.4272461,-2.380371,-0.79345703
5730053,0.0041503906,-0.0048828125,1.0177002,0.4272461,-2.380371,-0.79345703
5730063,0.0040283203,-0.0048828125,1.0155029,0.4272461,-2.5024414,-0.7324219
5730073,0.0048828125,-0.0053710938,1.017334,0.4272461,-2.4414062,-0.8544922
5730063,0.0040283203,-0.0048828125,1.0155029,0.4272461,-2.5024414,-0.7324219
5730073,0.0048828125,-0.0053710938,1.017334,0.4272461,-2.4414062,-0.8544922
5730083,0.0034179688,-0.004638672,1.0159912,0.48828125,-2.4414062,-0.8544922
5730093,0.005004883,-0.0048828125,1.0177002,0.48828125,-2.4414062,-0.8544922
5730083,0.0034179688,-0.004638672,1.0159912,0.48828125,-2.4414062,-0.8544922
5730103,0.004272461,-0.004760742,1.0163574,0.5493164,-2.4414062,-0.79345703
5730093,0.005004883,-0.0048828125,1.0177002,0.48828125,-2.4414062,-0.8544922
5730113,0.0052490234,-0.00390625,1.017456,0.5493164,-2.5024414,-0.91552734
5730103,0.004272461,-0.004760742,1.0163574,0.5493164,-2.4414062,-0.79345703
5730123,0.0043945312,-0.0043945312,1.0170898,0.48828125,-2.4414062,-0.8544922
5730113,0.0052490234,-0.00390625,1.017456,0.5493164,-2.5024414,-0.91552734
5730133,0.0059814453,-0.0045166016,1.0168457,0.5493164,-2.4414062,-0.8544922
5730123,0.0043945312,-0.0043945312,1.0170898,0.48828125,-2.4414062,-0.8544922
5730133,0.0059814453,-0.0045166016,1.0168457,0.5493164,-2.4414062,-0.8544922
5730143,0.004760742,-0.004638672,1.0153809,0.4272461,-2.4414062,-0.8544922
5730143,0.004760742,-0.004638672,1.0153809,0.4272461,-2.4414062,-0.8544922
5730153,0.0053710938,-0.004272461,1.0164795,0.4272461,-2.380371,-0.8544922
5730163,0.005004883,-0.004272461,1.0159912,0.48828125,-2.319336,-0.8544922
5730153,0.0053710938,-0.004272461,1.0164795,0.4272461,-2.380371,-0.8544922
5730173,0.0056152344,-0.005126953,1.0169678,0.48828125,-2.4414062,-0.79345703
5730163,0.005004883,-0.004272461,1.0159912,0.48828125,-2.319336,-0.8544922
5730173,0.0056152344,-0.005126953,1.0169678,0.48828125,-2.4414062,-0.79345703
5730193,0.005493164,-0.0048828125,1.017456,0.4272461,-2.380371,-0.79345703
5730193,0.005493164,-0.0048828125,1.017456,0.4272461,-2.380371,-0.79345703
5730213,0.004638672,-0.0045166016,1.0168457,0.48828125,-2.380371,-0.8544922
5730213,0.004638672,-0.0045166016,1.0168457,0.48828125,-2.380371,-0.8544922
5730223,0.0040283203,-0.004638672,1.0164795,0.5493164,-2.5634766,-0.7324219
5730223,0.0040283203,-0.004638672,1.0164795,0.5493164,-2.5634766,-0.7324219
5730233,0.0048828125,-0.0048828125,1.0158691,0.5493164,-2.5634766,-0.79345703
5730233,0.0048828125,-0.0048828125,1.0158691,0.5493164,-2.5634766,-0.79345703
5730243,0.004760742,-0.0045166016,1.0151367,0.48828125,-2.5024414,-0.79345703
5730243,0.004760742,-0.0045166016,1.0151367,0.48828125,-2.5024414,-0.79345703
5730253,0.0041503906,-0.005126953,1.0169678,0.5493164,-2.5024414,-0.79345703
5730253,0.0041503906,-0.005126953,1.0169678,0.5493164,-2.5024414,-0.79345703
5730263,0.005004883,-0.0048828125,1.0169678,0.48828125,-2.4414062,-0.79345703
5730263,0.005004883,-0.0048828125,1.0169678,0.48828125,-2.4414062,-0.79345703
5730273,0.005859375,-0.0053710938,1.0167236,0.4272461,-2.5024414,-0.79345703
5730283,0.0052490234,-0.0053710938,1.0181885,0.48828125,-2.5634766,-0.7324219
5730273,0.005859375,-0.0053710938,1.0167236,0.4272461,-2.5024414,-0.79345703
5730283,0.0052490234,-0.0053710938,1.0181885,0.48828125,-2.5634766,-0.7324219
5730293,0.005859375,-0.004638672,1.0163574,0.48828125,-2.5024414,-0.79345703
5730293,0.005859375,-0.004638672,1.0163574,0.48828125,-2.5024414,-0.79345703
5730303,0.0052490234,-0.00390625,1.017456,0.4272461,-2.4414062,-0.79345703
5730303,0.0052490234,-0.00390625,1.017456,0.4272461,-2.4414062,-0.79345703
5730313,0.005126953,-0.0043945312,1.0183105,0.48828125,-2.5024414,-0.79345703
5730313,0.005126953,-0.0043945312,1.0183105,0.48828125,-2.5024414,-0.79345703
5730323,0.0052490234,-0.0043945312,1.0178223,0.48828125,-2.4414062,-0.79345703
5730333,0.0043945312,-0.004760742,1.0172119,0.5493164,-2.4414062,-0.8544922
5730323,0.0052490234,-0.0043945312,1.0178223,0.48828125,-2.4414062,-0.79345703
5730343,0.0052490234,-0.0052490234,1.0170898,0.48828125,-2.5024414,-0.79345703
5730333,0.0043945312,-0.004760742,1.0172119,0.5493164,-2.4414062,-0.8544922
5730363,0.0037841797,-0.0048828125,1.0183105,0.48828125,-2.5024414,-0.79345703
5730383,0.0052490234,-0.0048828125,1.017456,0.5493164,-2.5024414,-0.79345703
5730343,0.0052490234,-0.0052490234,1.0170898,0.48828125,-2.5024414,-0.79345703
5730393,0.0045166016,-0.0048828125,1.017334,0.61035156,-2.5634766,-0.8544922
5730403,0.005126953,-0.0043945312,1.0166016,0.48828125,-2.380371,-0.8544922
5730413,0.003540039,-0.0052490234,1.0164795,0.48828125,-2.4414062,-0.79345703
5730423,0.004760742,-0.003540039,1.0163574,0.48828125,-2.5024414,-0.7324219
5730433,0.004760742,-0.004272461,1.0172119,0.48828125,-2.6245117,-0.7324219
5730363,0.0037841797,-0.0048828125,1.0183105,0.48828125,-2.5024414,-0.79345703
5730443,0.0048828125,-0.0043945312,1.0163574,0.48828125,-2.5634766,-0.79345703
5730383,0.0052490234,-0.0048828125,1.017456,0.5493164,-2.5024414,-0.79345703
5730453,0.004272461,-0.0053710938,1.0180664,0.48828125,-2.4414062,-0.8544922
5730393,0.0045166016,-0.0048828125,1.017334,0.61035156,-2.5634766,-0.8544922
5730463,0.0052490234,-0.0045166016,1.0170898,0.5493164,-2.380371,-0.91552734
5730403,0.005126953,-0.0043945312,1.0166016,0.48828125,-2.380371,-0.8544922
5730413,0.003540039,-0.0052490234,1.0164795,0.48828125,-2.4414062,-0.79345703
5730473,0.003540039,-0.004638672,1.0167236,0.4272461,-2.4414062,-0.8544922
5730483,0.0040283203,-0.005004883,1.0150146,0.48828125,-2.5024414,-0.91552734
5730423,0.004760742,-0.003540039,1.0163574,0.48828125,-2.5024414,-0.7324219
5730493,0.004760742,-0.0048828125,1.0159912,0.48828125,-2.4414062,-0.79345703
5730503,0.004760742,-0.0045166016,1.0167236,0.48828125,-2.5634766,-0.8544922
5730523,0.0030517578,-0.0041503906,1.0167236,0.4272461,-2.5024414,-0.91552734
5730543,0.0043945312,-0.0048828125,1.0155029,0.48828125,-2.4414062,-0.8544922
5730433,0.004760742,-0.004272461,1.0172119,0.48828125,-2.6245117,-0.7324219
5730443,0.0048828125,-0.0043945312,1.0163574,0.48828125,-2.5634766,-0.79345703
5730453,0.004272461,-0.0053710938,1.0180664,0.48828125,-2.4414062,-0.8544922
5730463,0.0052490234,-0.0045166016,1.0170898,0.5493164,-2.380371,-0.91552734
5730473,0.003540039,-0.004638672,1.0167236,0.4272461,-2.4414062,-0.8544922
5730483,0.0040283203,-0.005004883,1.0150146,0.48828125,-2.5024414,-0.91552734
5730493,0.004760742,-0.0048828125,1.0159912,0.48828125,-2.4414062,-0.79345703
5730553,0.0052490234,-0.0053710938,1.017456,0.4272461,-2.4414062,-0.8544922
5730503,0.004760742,-0.0045166016,1.0167236,0.48828125,-2.5634766,-0.8544922
5730563,0.0045166016,-0.005859375,1.0180664,0.4272461,-2.5024414,-0.8544922
5730573,0.0045166016,-0.004638672,1.0166016,0.4272461,-2.5024414,-0.8544922
5730583,0.0056152344,-0.005126953,1.0162354,0.4272461,-2.4414062,-0.91552734
5730523,0.0030517578,-0.0041503906,1.0167236,0.4272461,-2.5024414,-0.91552734
5730543,0.0043945312,-0.0048828125,1.0155029,0.48828125,-2.4414062,-0.8544922
5730593,0.0048828125,-0.005126953,1.0162354,0.4272461,-2.380371,-0.91552734
5730553,0.0052490234,-0.0053710938,1.017456,0.4272461,-2.4414062,-0.8544922
5730563,0.0045166016,-0.005859375,1.0180664,0.4272461,-2.5024414,-0.8544922
5730573,0.0045166016,-0.004638672,1.0166016,0.4272461,-2.5024414,-0.8544922
5730583,0.0056152344,-0.005126953,1.0162354,0.4272461,-2.4414062,-0.91552734
5730603,0.0040283203,-0.004638672,1.0152588,0.4272461,-2.4414062,-0.8544922
5730593,0.0048828125,-0.005126953,1.0162354,0.4272461,-2.380371,-0.91552734
5730613,0.0041503906,-0.0043945312,1.0179443,0.48828125,-2.4414062,-0.8544922
5730603,0.0040283203,-0.004638672,1.0152588,0.4272461,-2.4414062,-0.8544922
5730623,0.005004883,-0.0043945312,1.0158691,0.48828125,-2.4414062,-0.8544922
5730613,0.0041503906,-0.0043945312,1.0179443,0.48828125,-2.4414062,-0.8544922
5730623,0.005004883,-0.0043945312,1.0158691,0.48828125,-2.4414062,-0.8544922
5730633,0.0036621094,-0.0048828125,1.0164795,0.48828125,-2.4414062,-0.8544922
5730633,0.0036621094,-0.0048828125,1.0164795,0.48828125,-2.4414062,-0.8544922
5730643,0.004638672,-0.0045166016,1.0168457,0.4272461,-2.5024414,-0.79345703
5730643,0.004638672,-0.0045166016,1.0168457,0.4272461,-2.5024414,-0.79345703
5730653,0.0037841797,-0.0045166016,1.017456,0.5493164,-2.5024414,-0.79345703
5730653,0.0037841797,-0.0045166016,1.017456,0.5493164,-2.5024414,-0.79345703
5730663,0.005126953,-0.004638672,1.0158691,0.5493164,-2.4414062,-0.8544922
5730673,0.005004883,-0.0048828125,1.017334,0.36621094,-2.4414062,-0.79345703
5730663,0.005126953,-0.004638672,1.0158691,0.5493164,-2.4414062,-0.8544922
5730673,0.005004883,-0.0048828125,1.017334,0.36621094,-2.4414062,-0.79345703
5730693,0.0043945312,-0.004272461,1.0161133,0.48828125,-2.4414062,-0.79345703
5730693,0.0043945312,-0.004272461,1.0161133,0.48828125,-2.4414062,-0.79345703
5730703,0.0043945312,-0.004638672,1.0161133,0.48828125,-2.4414062,-0.8544922
5730713,0.0048828125,-0.0043945312,1.0169678,0.4272461,-2.4414062,-0.79345703
5730703,0.0043945312,-0.004638672,1.0161133,0.48828125,-2.4414062,-0.8544922
5730713,0.0048828125,-0.0043945312,1.0169678,0.4272461,-2.4414062,-0.79345703
5730723,0.0043945312,-0.004638672,1.017456,0.4272461,-2.4414062,-0.79345703
5730723,0.0043945312,-0.004638672,1.017456,0.4272461,-2.4414062,-0.79345703
5730733,0.004760742,-0.0043945312,1.0163574,0.4272461,-2.4414062,-0.8544922
5730733,0.004760742,-0.0043945312,1.0163574,0.4272461,-2.4414062,-0.8544922
5730743,0.0040283203,-0.004760742,1.017334,0.48828125,-2.380371,-0.8544922
5730753,0.0036621094,-0.00390625,1.0162354,0.5493164,-2.4414062,-0.8544922
5730743,0.0040283203,-0.004760742,1.017334,0.48828125,-2.380371,-0.8544922
5730753,0.0036621094,-0.00390625,1.0162354,0.5493164,-2.4414062,-0.8544922
5730763,0.0048828125,-0.004272461,1.0153809,0.48828125,-2.5024414,-0.79345703
5730763,0.0048828125,-0.004272461,1.0153809,0.48828125,-2.5024414,-0.79345703
5730773,0.005126953,-0.0048828125,1.0167236,0.48828125,-2.4414062,-0.79345703
5730773,0.005126953,-0.0048828125,1.0167236,0.48828125,-2.4414062,-0.79345703
5730783,0.0041503906,-0.0045166016,1.0155029,0.48828125,-2.5024414,-0.7324219
5730783,0.0041503906,-0.0045166016,1.0155029,0.48828125,-2.5024414,-0.7324219
5730793,0.004272461,-0.004638672,1.0167236,0.48828125,-2.5024414,-0.91552734
5730803,0.005004883,-0.0048828125,1.0158691,0.48828125,-2.5024414,-0.91552734
5730793,0.004272461,-0.004638672,1.0167236,0.48828125,-2.5024414,-0.91552734
5730803,0.005004883,-0.0048828125,1.0158691,0.48828125,-2.5024414,-0.91552734
5730813,0.005126953,-0.0056152344,1.0159912,0.48828125,-2.5024414,-0.79345703
5730813,0.005126953,-0.0056152344,1.0159912,0.48828125,-2.5024414,-0.79345703
5730823,0.005004883,-0.004760742,1.0167236,0.48828125,-2.4414062,-0.7324219
5730823,0.005004883,-0.004760742,1.0167236,0.48828125,-2.4414062,-0.7324219
5730833,0.004760742,-0.0040283203,1.0169678,0.48828125,-2.5634766,-0.7324219
5730833,0.004760742,-0.0040283203,1.0169678,0.48828125,-2.5634766,-0.7324219
5730853,0.0045166016,-0.004760742,1.0170898,0.5493164,-2.380371,-0.91552734
5730853,0.0045166016,-0.004760742,1.0170898,0.5493164,-2.380371,-0.91552734
5730873,0.0048828125,-0.0040283203,1.0159912,0.36621094,-2.4414062,-0.91552734
5730873,0.0048828125,-0.0040283203,1.0159912,0.36621094,-2.4414062,-0.91552734
5730883,0.004638672,-0.004638672,1.0159912,0.48828125,-2.380371,-0.79345703
5730893,0.004272461,-0.0043945312,1.0167236,0.4272461,-2.4414062,-0.8544922
5730883,0.004638672,-0.004638672,1.0159912,0.48828125,-2.380371,-0.79345703
5730903,0.004760742,-0.0045166016,1.0158691,0.4272461,-2.380371,-0.8544922
5730893,0.004272461,-0.0043945312,1.0167236,0.4272461,-2.4414062,-0.8544922
5730913,0.0041503906,-0.005126953,1.0168457,0.36621094,-2.5634766,-0.7324219
5730923,0.0043945312,-0.0040283203,1.0168457,0.4272461,-2.380371,-0.7324219
5730903,0.004760742,-0.0045166016,1.0158691,0.4272461,-2.380371,-0.8544922
5730933,0.0045166016,-0.0052490234,1.0178223,0.48828125,-2.5024414,-0.79345703
5730913,0.0041503906,-0.005126953,1.0168457,0.36621094,-2.5634766,-0.7324219
5730923,0.0043945312,-0.0040283203,1.0168457,0.4272461,-2.380371,-0.7324219
5730933,0.0045166016,-0.0052490234,1.0178223,0.48828125,-2.5024414,-0.79345703
5730943,0.0052490234,-0.0037841797,1.0150146,0.48828125,-2.4414062,-0.79345703
5730943,0.0052490234,-0.0037841797,1.0150146,0.48828125,-2.4414062,-0.79345703
5730953,0.004760742,-0.004638672,1.0163574,0.48828125,-2.4414062,-0.8544922
5730953,0.004760742,-0.004638672,1.0163574,0.48828125,-2.4414062,-0.8544922
5730963,0.004760742,-0.004760742,1.0166016,0.48828125,-2.4414062,-0.79345703
5730963,0.004760742,-0.004760742,1.0166016,0.48828125,-2.4414062,-0.79345703
5730973,0.004760742,-0.0040283203,1.0162354,0.48828125,-2.5024414,-0.79345703
5730973,0.004760742,-0.0040283203,1.0162354,0.48828125,-2.5024414,-0.79345703
5730983,0.0040283203,-0.004638672,1.0179443,0.48828125,-2.5024414,-0.79345703
5730983,0.0040283203,-0.004638672,1.0179443,0.48828125,-2.5024414,-0.79345703
5730993,0.005493164,-0.0034179688,1.0166016,0.48828125,-2.4414062,-0.79345703
5731013,0.0037841797,-0.0043945312,1.0159912,0.4272461,-2.4414062,-0.79345703
5730993,0.005493164,-0.0034179688,1.0166016,0.48828125,-2.4414062,-0.79345703
5731013,0.0037841797,-0.0043945312,1.0159912,0.4272461,-2.4414062,-0.79345703
5731033,0.0045166016,-0.005004883,1.0164795,0.4272461,-2.380371,-0.8544922
5731033,0.0045166016,-0.005004883,1.0164795,0.4272461,-2.380371,-0.8544922
5731043,0.004638672,-0.0043945312,1.0177002,0.48828125,-2.4414062,-0.91552734
5731053,0.004760742,-0.004760742,1.0163574,0.48828125,-2.4414062,-0.8544922
5731043,0.004638672,-0.0043945312,1.0177002,0.48828125,-2.4414062,-0.91552734
5731063,0.00390625,-0.0048828125,1.0151367,0.48828125,-2.4414062,-0.91552734
5731073,0.0052490234,-0.005126953,1.0157471,0.48828125,-2.319336,-0.8544922
5731053,0.004760742,-0.004760742,1.0163574,0.48828125,-2.4414062,-0.8544922
5731083,0.0037841797,-0.0041503906,1.0159912,0.48828125,-2.380371,-0.8544922
5731063,0.00390625,-0.0048828125,1.0151367,0.48828125,-2.4414062,-0.91552734
5731073,0.0052490234,-0.005126953,1.0157471,0.48828125,-2.319336,-0.8544922
5731083,0.0037841797,-0.0041503906,1.0159912,0.48828125,-2.380371,-0.8544922
5731093,0.00390625,-0.005004883,1.0167236,0.48828125,-2.4414062,-0.79345703
5731103,0.0036621094,-0.0045166016,1.0164795,0.48828125,-2.5024414,-0.79345703
5731093,0.00390625,-0.005004883,1.0167236,0.48828125,-2.4414062,-0.79345703
5731113,0.0034179688,-0.0048828125,1.0159912,0.5493164,-2.4414062,-0.79345703
5731103,0.0036621094,-0.0045166016,1.0164795,0.48828125,-2.5024414,-0.79345703
5731113,0.0034179688,-0.0048828125,1.0159912,0.5493164,-2.4414062,-0.79345703
5731123,0.004638672,-0.0037841797,1.0172119,0.5493164,-2.4414062,-0.79345703
5731123,0.004638672,-0.0037841797,1.0172119,0.5493164,-2.4414062,-0.79345703
5731133,0.004272461,-0.0048828125,1.0162354,0.48828125,-2.380371,-0.8544922
5731133,0.004272461,-0.0048828125,1.0162354,0.48828125,-2.380371,-0.8544922
5731143,0.0041503906,-0.0045166016,1.0159912,0.48828125,-2.4414062,-0.91552734
5731143,0.0041503906,-0.0045166016,1.0159912,0.48828125,-2.4414062,-0.91552734
5731153,0.0045166016,-0.005004883,1.0172119,0.61035156,-2.4414062,-0.79345703
5731153,0.0045166016,-0.005004883,1.0172119,0.61035156,-2.4414062,-0.79345703
5731163,0.004638672,-0.0045166016,1.0166016,0.48828125,-2.4414062,-0.79345703
5731163,0.004638672,-0.0045166016,1.0166016,0.48828125,-2.4414062,-0.79345703
5731183,0.0048828125,-0.005004883,1.0150146,0.5493164,-2.5634766,-0.8544922
5731183,0.0048828125,-0.005004883,1.0150146,0.5493164,-2.5634766,-0.8544922
5731203,0.004272461,-0.004272461,1.0169678,0.48828125,-2.5024414,-0.7324219
5731203,0.004272461,-0.004272461,1.0169678,0.48828125,-2.5024414,-0.7324219
5731213,0.0043945312,-0.005126953,1.0157471,0.48828125,-2.5024414,-0.7324219
5731213,0.0043945312,-0.005126953,1.0157471,0.48828125,-2.5024414,-0.7324219
5731223,0.0043945312,-0.004272461,1.0159912,0.48828125,-2.5024414,-0.79345703
5731223,0.0043945312,-0.004272461,1.0159912,0.48828125,-2.5024414,-0.79345703
5731233,0.00390625,-0.004760742,1.0161133,0.4272461,-2.4414062,-0.8544922
5731233,0.00390625,-0.004760742,1.0161133,0.4272461,-2.4414062,-0.8544922
5731243,0.0043945312,-0.0056152344,1.0159912,0.4272461,-2.380371,-0.8544922
5731243,0.0043945312,-0.0056152344,1.0159912,0.4272461,-2.380371,-0.8544922
5731253,0.0040283203,-0.0052490234,1.0163574,0.4272461,-2.380371,-0.8544922
5731253,0.0040283203,-0.0052490234,1.0163574,0.4272461,-2.380371,-0.8544922
5731263,0.0041503906,-0.0048828125,1.0155029,0.48828125,-2.4414062,-0.79345703
5731273,0.0052490234,-0.0052490234,1.0163574,0.48828125,-2.380371,-0.79345703
5731263,0.0041503906,-0.0048828125,1.0155029,0.48828125,-2.4414062,-0.79345703
5731273,0.0052490234,-0.0052490234,1.0163574,0.48828125,-2.380371,-0.79345703
5731283,0.0043945312,-0.005004883,1.0168457,0.4272461,-2.4414062,-0.8544922
5731283,0.0043945312,-0.005004883,1.0168457,0.4272461,-2.4414062,-0.8544922
5731293,0.0061035156,-0.00390625,1.0163574,0.4272461,-2.380371,-0.91552734
5731293,0.0061035156,-0.00390625,1.0163574,0.4272461,-2.380371,-0.91552734
5731303,0.0041503906,-0.004638672,1.0159912,0.4272461,-2.5024414,-0.8544922
5731313,0.004760742,-0.004638672,1.0150146,0.48828125,-2.5024414,-0.79345703
5731323,0.005004883,-0.004638672,1.0155029,0.48828125,-2.380371,-0.91552734
5731303,0.0041503906,-0.004638672,1.0159912,0.4272461,-2.5024414,-0.8544922
5731313,0.004760742,-0.004638672,1.0150146,0.48828125,-2.5024414,-0.79345703
5731323,0.005004883,-0.004638672,1.0155029,0.48828125,-2.380371,-0.91552734
5731343,0.0057373047,-0.0041503906,1.0168457,0.4272461,-2.380371,-0.8544922
5731343,0.0057373047,-0.0041503906,1.0168457,0.4272461,-2.380371,-0.8544922
5731363,0.004760742,-0.0043945312,1.0168457,0.48828125,-2.4414062,-0.8544922
5731363,0.004760742,-0.0043945312,1.0168457,0.48828125,-2.4414062,-0.8544922
5731373,0.0053710938,-0.00390625,1.0153809,0.5493164,-2.5024414,-0.8544922
5731373,0.0053710938,-0.00390625,1.0153809,0.5493164,-2.5024414,-0.8544922
5731383,0.004760742,-0.004638672,1.0164795,0.5493164,-2.5024414,-0.79345703
5731383,0.004760742,-0.004638672,1.0164795,0.5493164,-2.5024414,-0.79345703
5731393,0.0036621094,-0.004760742,1.0161133,0.48828125,-2.5024414,-0.79345703
5731393,0.0036621094,-0.004760742,1.0161133,0.48828125,-2.5024414,-0.79345703
5731403,0.0048828125,-0.0041503906,1.0168457,0.48828125,-2.5024414,-0.79345703
5731403,0.0048828125,-0.0041503906,1.0168457,0.48828125,-2.5024414,-0.79345703
5731413,0.0053710938,-0.0053710938,1.0162354,0.48828125,-2.5024414,-0.79345703
5731413,0.0053710938,-0.0053710938,1.0162354,0.48828125,-2.5024414,-0.79345703
5731423,0.0048828125,-0.005004883,1.0167236,0.48828125,-2.380371,-0.8544922
5731423,0.0048828125,-0.005004883,1.0167236,0.48828125,-2.380371,-0.8544922
5731433,0.0043945312,-0.005493164,1.0169678,0.48828125,-2.4414062,-0.8544922
5731433,0.0043945312,-0.005493164,1.0169678,0.48828125,-2.4414062,-0.8544922
5731443,0.0040283203,-0.0048828125,1.0175781,0.4272461,-2.5024414,-0.79345703
5731443,0.0040283203,-0.0048828125,1.0175781,0.4272461,-2.5024414,-0.79345703
5731453,0.0043945312,-0.0052490234,1.0175781,0.48828125,-2.4414062,-0.79345703
5731453,0.0043945312,-0.0052490234,1.0175781,0.48828125,-2.4414062,-0.79345703
5731463,0.004272461,-0.0036621094,1.0169678,0.48828125,-2.5024414,-0.79345703
5731463,0.004272461,-0.0036621094,1.0169678,0.48828125,-2.5024414,-0.79345703
5731473,0.0043945312,-0.0045166016,1.0162354,0.4272461,-2.4414062,-0.79345703
5731473,0.0043945312,-0.0045166016,1.0162354,0.4272461,-2.4414062,-0.79345703
5731483,0.005004883,-0.0045166016,1.0159912,0.48828125,-2.4414062,-0.8544922
5731483,0.005004883,-0.0045166016,1.0159912,0.48828125,-2.4414062,-0.8544922
5731493,0.0045166016,-0.00390625,1.017334,0.5493164,-2.5634766,-0.6713867
5731493,0.0045166016,-0.00390625,1.017334,0.5493164,-2.5634766,-0.6713867
5731513,0.00390625,-0.0057373047,1.0164795,0.4272461,-2.4414062,-0.79345703
5731513,0.00390625,-0.0057373047,1.0164795,0.4272461,-2.4414062,-0.79345703
5731533,0.005126953,-0.0045166016,1.0158691,0.48828125,-2.5024414,-0.79345703
5731533,0.005126953,-0.0045166016,1.0158691,0.48828125,-2.5024414,-0.79345703
5731543,0.004638672,-0.004638672,1.0151367,0.48828125,-2.4414062,-0.79345703
5731553,0.0043945312,-0.005859375,1.017334,0.48828125,-2.380371,-0.79345703
5731543,0.004638672,-0.004638672,1.0151367,0.48828125,-2.4414062,-0.79345703
5731563,0.0045166016,-0.005493164,1.0167236,0.48828125,-2.5024414,-0.8544922
5731553,0.0043945312,-0.005859375,1.017334,0.48828125,-2.380371,-0.79345703
5731573,0.004638672,-0.0043945312,1.0159912,0.5493164,-2.6245117,-0.8544922
5731563,0.0045166016,-0.005493164,1.0167236,0.48828125,-2.5024414,-0.8544922
5731583,0.0043945312,-0.004272461,1.0167236,0.5493164,-2.5024414,-0.8544922
5731573,0.004638672,-0.0043945312,1.0159912,0.5493164,-2.6245117,-0.8544922
5731583,0.0043945312,-0.004272461,1.0167236,0.5493164,-2.5024414,-0.8544922
5731593,0.005126953,-0.0045166016,1.0162354,0.48828125,-2.380371,-0.91552734
5731603,0.0037841797,-0.0052490234,1.0155029,0.48828125,-2.4414062,-0.79345703
5731593,0.005126953,-0.0045166016,1.0162354,0.48828125,-2.380371,-0.91552734
5731613,0.0052490234,-0.0040283203,1.0163574,0.4272461,-2.4414062,-0.79345703
5731603,0.0037841797,-0.0052490234,1.0155029,0.48828125,-2.4414062,-0.79345703
5731623,0.005004883,-0.0032958984,1.0168457,0.48828125,-2.5024414,-0.8544922
5731613,0.0052490234,-0.0040283203,1.0163574,0.4272461,-2.4414062,-0.79345703
5731623,0.005004883,-0.0032958984,1.0168457,0.48828125,-2.5024414,-0.8544922
5731633,0.0041503906,-0.005126953,1.0167236,0.48828125,-2.5024414,-0.79345703
5731643,0.0057373047,-0.004760742,1.0158691,0.48828125,-2.5634766,-0.79345703
5731633,0.0041503906,-0.005126953,1.0167236,0.48828125,-2.5024414,-0.79345703
5731653,0.0052490234,-0.005004883,1.0163574,0.48828125,-2.5024414,-0.79345703
5731673,0.005859375,-0.0045166016,1.0152588,0.48828125,-2.4414062,-0.8544922
5731643,0.0057373047,-0.004760742,1.0158691,0.48828125,-2.5634766,-0.79345703
5731653,0.0052490234,-0.005004883,1.0163574,0.48828125,-2.5024414,-0.79345703
5731673,0.005859375,-0.0045166016,1.0152588,0.48828125,-2.4414062,-0.8544922
5731693,0.004272461,-0.005004883,1.0167236,0.48828125,-2.5024414,-0.8544922
5731703,0.0041503906,-0.004638672,1.0159912,0.48828125,-2.4414062,-0.8544922
5731693,0.004272461,-0.005004883,1.0167236,0.48828125,-2.5024414,-0.8544922
5731713,0.0041503906,-0.0043945312,1.0159912,0.48828125,-2.4414062,-0.79345703
5731703,0.0041503906,-0.004638672,1.0159912,0.48828125,-2.4414062,-0.8544922
5731723,0.0043945312,-0.0045166016,1.0161133,0.4272461,-2.4414062,-0.8544922
5731713,0.0041503906,-0.0043945312,1.0159912,0.48828125,-2.4414062,-0.79345703
5731723,0.0043945312,-0.0045166016,1.0161133,0.4272461,-2.4414062,-0.8544922
5731733,0.005004883,-0.0048828125,1.0158691,0.48828125,-2.4414062,-0.8544922
5731733,0.005004883,-0.0048828125,1.0158691,0.48828125,-2.4414062,-0.8544922
5731743,0.005004883,-0.0041503906,1.0170898,0.48828125,-2.380371,-0.79345703
5731743,0.005004883,-0.0041503906,1.0170898,0.48828125,-2.380371,-0.79345703
5731753,0.0053710938,-0.0043945312,1.0161133,0.48828125,-2.4414062,-0.79345703
5731753,0.0053710938,-0.0043945312,1.0161133,0.48828125,-2.4414062,-0.79345703
5731763,0.0043945312,-0.004760742,1.0152588,0.48828125,-2.5024414,-0.8544922
5731763,0.0043945312,-0.004760742,1.0152588,0.48828125,-2.5024414,-0.8544922
5731773,0.0053710938,-0.0045166016,1.0147705,0.5493164,-2.4414062,-0.91552734
5731773,0.0053710938,-0.0045166016,1.0147705,0.5493164,-2.4414062,-0.91552734
5731783,0.004272461,-0.004638672,1.0152588,0.48828125,-2.5024414,-0.8544922
5731783,0.004272461,-0.004638672,1.0152588,0.48828125,-2.5024414,-0.8544922
5731793,0.004272461,-0.005126953,1.0170898,0.5493164,-2.380371,-0.8544922
5731793,0.004272461,-0.005126953,1.0170898,0.5493164,-2.380371,-0.8544922
5731803,0.003540039,-0.005126953,1.0155029,0.48828125,-2.4414062,-0.91552734
5731803,0.003540039,-0.005126953,1.0155029,0.48828125,-2.4414062,-0.91552734
5731813,0.00390625,-0.0048828125,1.0161133,0.48828125,-2.380371,-0.91552734
5731813,0.00390625,-0.0048828125,1.0161133,0.48828125,-2.380371,-0.91552734
5731823,0.00390625,-0.004638672,1.0161133,0.4272461,-2.319336,-0.91552734
5731823,0.00390625,-0.004638672,1.0161133,0.4272461,-2.319336,-0.91552734
5731843,0.0043945312,-0.004638672,1.0155029,0.4272461,-2.5024414,-0.79345703
5731843,0.0043945312,-0.004638672,1.0155029,0.4272461,-2.5024414,-0.79345703
5731853,0.0048828125,-0.0045166016,1.0163574,0.4272461,-2.5634766,-0.79345703
5731853,0.0048828125,-0.0045166016,1.0163574,0.4272461,-2.5634766,-0.79345703
5731863,0.0037841797,-0.005126953,1.017334,0.4272461,-2.5634766,-0.79345703
5731863,0.0037841797,-0.005126953,1.017334,0.4272461,-2.5634766,-0.79345703
5731873,0.004760742,-0.0041503906,1.0155029,0.48828125,-2.5634766,-0.7324219
5731873,0.004760742,-0.0041503906,1.0155029,0.48828125,-2.5634766,-0.7324219
5731883,0.003540039,-0.005126953,1.0157471,0.4272461,-2.4414062,-0.79345703
5731883,0.003540039,-0.005126953,1.0157471,0.4272461,-2.4414062,-0.79345703
5731893,0.004638672,-0.005126953,1.0163574,0.5493164,-2.5024414,-0.91552734
5731903,0.0040283203,-0.005004883,1.0168457,0.5493164,-2.4414062,-0.8544922
5731893,0.004638672,-0.005126953,1.0163574,0.5493164,-2.5024414,-0.91552734
5731913,0.004638672,-0.005493164,1.0159912,0.48828125,-2.5634766,-0.8544922
5731903,0.0040283203,-0.005004883,1.0168457,0.5493164,-2.4414062,-0.8544922
5731923,0.004638672,-0.0045166016,1.0145264,0.4272461,-2.5024414,-0.79345703
5731913,0.004638672,-0.005493164,1.0159912,0.48828125,-2.5634766,-0.8544922
5731933,0.004760742,-0.0040283203,1.0155029,0.4272461,-2.5024414,-0.79345703
5731923,0.004638672,-0.0045166016,1.0145264,0.4272461,-2.5024414,-0.79345703
5731933,0.004760742,-0.0040283203,1.0155029,0.4272461,-2.5024414,-0.79345703
5731943,0.004638672,-0.0041503906,1.0159912,0.4272461,-2.5024414,-0.8544922
5731943,0.004638672,-0.0041503906,1.0159912,0.4272461,-2.5024414,-0.8544922
5731953,0.004272461,-0.0041503906,1.0157471,0.48828125,-2.5634766,-0.8544922
5731953,0.004272461,-0.0041503906,1.0157471,0.48828125,-2.5634766,-0.8544922
5731963,0.0043945312,-0.00390625,1.0168457,0.48828125,-2.4414062,-0.79345703
5731963,0.0043945312,-0.00390625,1.0168457,0.48828125,-2.4414062,-0.79345703
5731973,0.0045166016,-0.005126953,1.0170898,0.48828125,-2.5024414,-0.7324219
5731973,0.0045166016,-0.005126953,1.0170898,0.48828125,-2.5024414,-0.7324219
5731983,0.0048828125,-0.004760742,1.0147705,0.5493164,-2.319336,-0.9765625
5731983,0.0048828125,-0.004760742,1.0147705,0.5493164,-2.319336,-0.9765625
5732003,0.0032958984,-0.0048828125,1.0157471,0.48828125,-2.5024414,-0.8544922
5732003,0.0032958984,-0.0048828125,1.0157471,0.48828125,-2.5024414,-0.8544922
5732023,0.005126953,-0.0052490234,1.0175781,0.5493164,-2.380371,-0.8544922
5732023,0.005126953,-0.0052490234,1.0175781,0.5493164,-2.380371,-0.8544922
5732033,0.004760742,-0.0043945312,1.0146484,0.48828125,-2.4414062,-0.8544922
5732033,0.004760742,-0.0043945312,1.0146484,0.48828125,-2.4414062,-0.8544922
5732043,0.0045166016,-0.0045166016,1.0164795,0.48828125,-2.5024414,-0.79345703
5732043,0.0045166016,-0.0045166016,1.0164795,0.48828125,-2.5024414,-0.79345703
5732053,0.004760742,-0.004638672,1.0157471,0.48828125,-2.4414062,-0.79345703
5732053,0.004760742,-0.004638672,1.0157471,0.48828125,-2.4414062,-0.79345703
5732063,0.0045166016,-0.0048828125,1.0153809,0.48828125,-2.5024414,-0.79345703
5732063,0.0045166016,-0.0048828125,1.0153809,0.48828125,-2.5024414,-0.79345703
5732073,0.004638672,-0.005126953,1.0164795,0.48828125,-2.5024414,-0.79345703
5732083,0.005004883,-0.004638672,1.0157471,0.5493164,-2.5024414,-0.7324219
5732073,0.004638672,-0.005126953,1.0164795,0.48828125,-2.5024414,-0.79345703
5732083,0.005004883,-0.004638672,1.0157471,0.5493164,-2.5024414,-0.7324219
5732093,0.00390625,-0.0048828125,1.0153809,0.48828125,-2.5634766,-0.7324219
5732093,0.00390625,-0.0048828125,1.0153809,0.48828125,-2.5634766,-0.7324219
5732103,0.0043945312,-0.004760742,1.0148926,0.48828125,-2.4414062,-0.79345703
5732103,0.0043945312,-0.004760742,1.0148926,0.48828125,-2.4414062,-0.79345703
5732113,0.003540039,-0.005004883,1.0161133,0.5493164,-2.4414062,-0.8544922
5732113,0.003540039,-0.005004883,1.0161133,0.5493164,-2.4414062,-0.8544922
5732123,0.005126953,-0.0056152344,1.0169678,0.48828125,-2.380371,-0.8544922
5732123,0.005126953,-0.0056152344,1.0169678,0.48828125,-2.380371,-0.8544922
5732133,0.00390625,-0.005004883,1.0166016,0.48828125,-2.4414062,-0.79345703
5732133,0.00390625,-0.005004883,1.0166016,0.48828125,-2.4414062,-0.79345703
5732143,0.005493164,-0.005004883,1.0162354,0.48828125,-2.4414062,-0.8544922
5732143,0.005493164,-0.005004883,1.0162354,0.48828125,-2.4414062,-0.8544922
5732163,0.005493164,-0.004760742,1.0159912,0.48828125,-2.4414062,-0.8544922
5732163,0.005493164,-0.004760742,1.0159912,0.48828125,-2.4414062,-0.8544922
5732183,0.0043945312,-0.004638672,1.0166016,0.4272461,-2.380371,-0.8544922
5732183,0.0043945312,-0.004638672,1.0166016,0.4272461,-2.380371,-0.8544922
5732193,0.0048828125,-0.004638672,1.0157471,0.48828125,-2.4414062,-0.91552734
5732193,0.0048828125,-0.004638672,1.0157471,0.48828125,-2.4414062,-0.91552734
5732203,0.0037841797,-0.0052490234,1.0167236,0.48828125,-2.4414062,-0.79345703
5732203,0.0037841797,-0.0052490234,1.0167236,0.48828125,-2.4414062,-0.79345703
5732213,0.0061035156,-0.0045166016,1.0161133,0.48828125,-2.5634766,-0.79345703
5732213,0.0061035156,-0.0045166016,1.0161133,0.48828125,-2.5634766,-0.79345703
5732223,0.0056152344,-0.004638672,1.0155029,0.4272461,-2.5024414,-0.79345703
5732223,0.0056152344,-0.004638672,1.0155029,0.4272461,-2.5024414,-0.79345703
5732233,0.0053710938,-0.0040283203,1.0168457,0.48828125,-2.5024414,-0.6713867
5732233,0.0053710938,-0.0040283203,1.0168457,0.48828125,-2.5024414,-0.6713867
5732243,0.0041503906,-0.005493164,1.0152588,0.4272461,-2.4414062,-0.8544922
5732243,0.0041503906,-0.005493164,1.0152588,0.4272461,-2.4414062,-0.8544922
5732253,0.004272461,-0.0045166016,1.0157471,0.4272461,-2.380371,-0.8544922
5732253,0.004272461,-0.0045166016,1.0157471,0.4272461,-2.380371,-0.8544922
5732263,0.0052490234,-0.004638672,1.0147705,0.48828125,-2.5024414,-0.8544922
5732263,0.0052490234,-0.004638672,1.0147705,0.48828125,-2.5024414,-0.8544922
5732273,0.004272461,-0.0048828125,1.0155029,0.4272461,-2.5634766,-0.8544922
5732273,0.004272461,-0.0048828125,1.0155029,0.4272461,-2.5634766,-0.8544922
5732283,0.005004883,-0.0048828125,1.015625,0.48828125,-2.5024414,-0.79345703
5732283,0.005004883,-0.0048828125,1.015625,0.48828125,-2.5024414,-0.79345703
5732293,0.004638672,-0.00390625,1.0161133,0.48828125,-2.5024414,-0.8544922
5732293,0.004638672,-0.00390625,1.0161133,0.48828125,-2.5024414,-0.8544922
5732303,0.0061035156,-0.0041503906,1.0164795,0.4272461,-2.5024414,-0.8544922
5732313,0.0059814453,-0.004638672,1.0161133,0.48828125,-2.4414062,-0.79345703
5732303,0.0061035156,-0.0041503906,1.0164795,0.4272461,-2.5024414,-0.8544922
5732313,0.0059814453,-0.004638672,1.0161133,0.48828125,-2.4414062,-0.79345703
5732333,0.0056152344,-0.0040283203,1.0159912,0.4272461,-2.5024414,-0.79345703
5732333,0.0056152344,-0.0040283203,1.0159912,0.4272461,-2.5024414,-0.79345703
5732353,0.0045166016,-0.004760742,1.0159912,0.48828125,-2.4414062,-0.79345703
5732353,0.0045166016,-0.004760742,1.0159912,0.48828125,-2.4414062,-0.79345703
5732363,0.0043945312,-0.00390625,1.0157471,0.4272461,-2.4414062,-0.91552734
5732363,0.0043945312,-0.00390625,1.0157471,0.4272461,-2.4414062,-0.91552734
5732373,0.005493164,-0.004760742,1.0157471,0.4272461,-2.4414062,-0.8544922
5732373,0.005493164,-0.004760742,1.0157471,0.4272461,-2.4414062,-0.8544922
5732383,0.0048828125,-0.0048828125,1.0151367,0.5493164,-2.380371,-0.8544922
5732383,0.0048828125,-0.0048828125,1.0151367,0.5493164,-2.380371,-0.8544922
5732393,0.005004883,-0.0048828125,1.0163574,0.5493164,-2.380371,-0.8544922
5732403,0.0057373047,-0.0043945312,1.0148926,0.5493164,-2.380371,-0.8544922
5732393,0.005004883,-0.0048828125,1.0163574,0.5493164,-2.380371,-0.8544922
5732413,0.0057373047,-0.005004883,1.0158691,0.48828125,-2.380371,-0.79345703
5732423,0.0048828125,-0.004638672,1.0141602,0.48828125,-2.4414062,-0.8544922
5732403,0.0057373047,-0.0043945312,1.0148926,0.5493164,-2.380371,-0.8544922
5732433,0.0061035156,-0.004760742,1.015625,0.48828125,-2.4414062,-0.79345703
5732413,0.0057373047,-0.005004883,1.0158691,0.48828125,-2.380371,-0.79345703
5732443,0.005004883,-0.004272461,1.0151367,0.4272461,-2.5634766,-0.8544922
5732423,0.0048828125,-0.004638672,1.0141602,0.48828125,-2.4414062,-0.8544922
5732484,0.004760742,-0.004638672,1.0152588,0.4272461,-2.380371,-0.79345703
5732503,0.005493164,-0.0048828125,1.015625,0.48828125,-2.319336,-0.91552734
5732433,0.0061035156,-0.004760742,1.015625,0.48828125,-2.4414062,-0.79345703
5732513,0.0048828125,-0.004638672,1.0157471,0.48828125,-2.380371,-0.91552734
5732443,0.005004883,-0.004272461,1.0151367,0.4272461,-2.5634766,-0.8544922
5732523,0.0052490234,-0.004760742,1.0158691,0.48828125,-2.4414062,-0.79345703
5732484,0.004760742,-0.004638672,1.0152588,0.4272461,-2.380371,-0.79345703
5732503,0.005493164,-0.0048828125,1.015625,0.48828125,-2.319336,-0.91552734
5732513,0.0048828125,-0.004638672,1.0157471,0.48828125,-2.380371,-0.91552734
5732523,0.0052490234,-0.004760742,1.0158691,0.48828125,-2.4414062,-0.79345703
5732533,0.004638672,-0.0048828125,1.0158691,0.48828125,-2.4414062,-0.8544922
5732533,0.004638672,-0.0048828125,1.0158691,0.48828125,-2.4414062,-0.8544922
5732543,0.004638672,-0.005004883,1.0151367,0.48828125,-2.5024414,-0.8544922
5732553,0.0041503906,-0.0048828125,1.0144043,0.48828125,-2.4414062,-0.8544922
5732543,0.004638672,-0.005004883,1.0151367,0.48828125,-2.5024414,-0.8544922
5732563,0.0043945312,-0.0052490234,1.0153809,0.48828125,-2.4414062,-0.91552734
5732553,0.0041503906,-0.0048828125,1.0144043,0.48828125,-2.4414062,-0.8544922
5732573,0.0040283203,-0.005004883,1.0144043,0.48828125,-2.380371,-0.79345703
5732563,0.0043945312,-0.0052490234,1.0153809,0.48828125,-2.4414062,-0.91552734
5732583,0.005493164,-0.0048828125,1.0148926,0.48828125,-2.4414062,-0.8544922
5732573,0.0040283203,-0.005004883,1.0144043,0.48828125,-2.380371,-0.79345703
5732583,0.005493164,-0.0048828125,1.0148926,0.48828125,-2.4414062,-0.8544922
5732593,0.004760742,-0.005493164,1.0168457,0.48828125,-2.4414062,-0.8544922
5732593,0.004760742,-0.005493164,1.0168457,0.48828125,-2.4414062,-0.8544922
5732603,0.00390625,-0.004638672,1.0152588,0.48828125,-2.380371,-0.91552734
5732603,0.00390625,-0.004638672,1.0152588,0.48828125,-2.380371,-0.91552734
5732613,0.0056152344,-0.0041503906,1.0153809,0.4272461,-2.4414062,-0.91552734
5732613,0.0056152344,-0.0041503906,1.0153809,0.4272461,-2.4414062,-0.91552734
5732623,0.005004883,-0.0045166016,1.0159912,0.48828125,-2.4414062,-0.8544922
5732623,0.005004883,-0.0045166016,1.0159912,0.48828125,-2.4414062,-0.8544922
5732633,0.0045166016,-0.004638672,1.0159912,0.5493164,-2.4414062,-0.79345703
5732633,0.0045166016,-0.004638672,1.0159912,0.5493164,-2.4414062,-0.79345703
5732643,0.004638672,-0.005126953,1.0164795,0.48828125,-2.5634766,-0.8544922
5732643,0.004638672,-0.005126953,1.0164795,0.48828125,-2.5634766,-0.8544922
5732663,0.0030517578,-0.0045166016,1.0166016,0.48828125,-2.380371,-0.8544922
5732663,0.0030517578,-0.0045166016,1.0166016,0.48828125,-2.380371,-0.8544922
5732683,0.003540039,-0.0048828125,1.0162354,0.48828125,-2.4414062,-0.79345703
5732683,0.003540039,-0.0048828125,1.0162354,0.48828125,-2.4414062,-0.79345703
5732693,0.0034179688,-0.004272461,1.0167236,0.4272461,-2.5024414,-0.7324219
5732693,0.0034179688,-0.004272461,1.0167236,0.4272461,-2.5024414,-0.7324219
5732703,0.003540039,-0.004638672,1.0159912,0.48828125,-2.5634766,-0.7324219
5732703,0.003540039,-0.004638672,1.0159912,0.48828125,-2.5634766,-0.7324219
5732713,0.004760742,-0.004638672,1.0155029,0.48828125,-2.4414062,-0.7324219
5732713,0.004760742,-0.004638672,1.0155029,0.48828125,-2.4414062,-0.7324219
5732723,0.0053710938,-0.005126953,1.017456,0.4272461,-2.380371,-0.8544922
5732723,0.0053710938,-0.005126953,1.017456,0.4272461,-2.380371,-0.8544922
5732733,0.005126953,-0.005126953,1.0164795,0.36621094,-2.319336,-0.79345703
5732733,0.005126953,-0.005126953,1.0164795,0.36621094,-2.319336,-0.79345703
5732743,0.0048828125,-0.0045166016,1.0151367,0.36621094,-2.380371,-0.79345703
5732743,0.0048828125,-0.0045166016,1.0151367,0.36621094,-2.380371,-0.79345703
5732753,0.005004883,-0.005126953,1.0162354,0.48828125,-2.380371,-0.79345703
5732753,0.005004883,-0.005126953,1.0162354,0.48828125,-2.380371,-0.79345703
5732763,0.0048828125,-0.0053710938,1.0168457,0.4272461,-2.5024414,-0.7324219
5732763,0.0048828125,-0.0053710938,1.0168457,0.4272461,-2.5024414,-0.7324219
5732773,0.004638672,-0.003540039,1.0152588,0.5493164,-2.5024414,-0.7324219
5732773,0.004638672,-0.003540039,1.0152588,0.5493164,-2.5024414,-0.7324219
5732783,0.0032958984,-0.004638672,1.0148926,0.5493164,-2.5024414,-0.7324219
5732783,0.0032958984,-0.004638672,1.0148926,0.5493164,-2.5024414,-0.7324219
5732793,0.004638672,-0.0045166016,1.0162354,0.48828125,-2.5024414,-0.7324219
5732793,0.004638672,-0.0045166016,1.0162354,0.48828125,-2.5024414,-0.7324219
5732803,0.0036621094,-0.0048828125,1.0153809,0.5493164,-2.4414062,-0.8544922
5732803,0.0036621094,-0.0048828125,1.0153809,0.5493164,-2.4414062,-0.8544922
5732823,0.0048828125,-0.004638672,1.0148926,0.48828125,-2.4414062,-0.79345703
5732823,0.0048828125,-0.004638672,1.0148926,0.48828125,-2.4414062,-0.79345703
5732843,0.0048828125,-0.003540039,1.0150146,0.5493164,-2.5024414,-0.79345703
5732843,0.0048828125,-0.003540039,1.0150146,0.5493164,-2.5024414,-0.79345703
5732853,0.0045166016,-0.004760742,1.0151367,0.48828125,-2.5634766,-0.79345703
5732853,0.0045166016,-0.004760742,1.0151367,0.48828125,-2.5634766,-0.79345703
5732863,0.004638672,-0.0045166016,1.0168457,0.48828125,-2.4414062,-0.79345703
5732863,0.004638672,-0.0045166016,1.0168457,0.48828125,-2.4414062,-0.79345703
5732873,0.0043945312,-0.0040283203,1.0155029,0.48828125,-2.4414062,-0.79345703
5732873,0.0043945312,-0.0040283203,1.0155029,0.48828125,-2.4414062,-0.79345703
5732883,0.004638672,-0.0040283203,1.0167236,0.48828125,-2.5024414,-0.7324219
5732893,0.0045166016,-0.0041503906,1.0150146,0.4272461,-2.380371,-0.8544922
5732883,0.004638672,-0.0040283203,1.0167236,0.48828125,-2.5024414,-0.7324219
5732903,0.0030517578,-0.005126953,1.0163574,0.48828125,-2.4414062,-0.79345703
5732893,0.0045166016,-0.0041503906,1.0150146,0.4272461,-2.380371,-0.8544922
5732913,0.005493164,-0.0053710938,1.0157471,0.4272461,-2.5024414,-0.79345703
5732903,0.0030517578,-0.005126953,1.0163574,0.48828125,-2.4414062,-0.79345703
5732923,0.006225586,-0.0053710938,1.0152588,0.4272461,-2.380371,-0.7324219
5732913,0.005493164,-0.0053710938,1.0157471,0.4272461,-2.5024414,-0.79345703
5732933,0.0052490234,-0.0053710938,1.0151367,0.5493164,-2.4414062,-0.7324219
5732923,0.006225586,-0.0053710938,1.0152588,0.4272461,-2.380371,-0.7324219
5732933,0.0052490234,-0.0053710938,1.0151367,0.5493164,-2.4414062,-0.7324219
5732943,0.00390625,-0.005493164,1.015625,0.4272461,-2.5024414,-0.8544922
5732953,0.0057373047,-0.004638672,1.0172119,0.4272461,-2.4414062,-0.8544922
5732963,0.0048828125,-0.005126953,1.0161133,0.4272461,-2.5024414,-0.8544922
5732943,0.00390625,-0.005493164,1.015625,0.4272461,-2.5024414,-0.8544922
5732973,0.005126953,-0.0048828125,1.0169678,0.4272461,-2.4414062,-0.79345703
5732953,0.0057373047,-0.004638672,1.0172119,0.4272461,-2.4414062,-0.8544922
5732963,0.0048828125,-0.005126953,1.0161133,0.4272461,-2.5024414,-0.8544922
5732973,0.005126953,-0.0048828125,1.0169678,0.4272461,-2.4414062,-0.79345703
5732993,0.005004883,-0.004638672,1.0144043,0.36621094,-2.5024414,-0.91552734
5733003,0.004638672,-0.0043945312,1.0159912,0.4272461,-2.4414062,-0.9765625
5733013,0.0053710938,-0.004272461,1.0151367,0.48828125,-2.380371,-0.79345703
5732993,0.005004883,-0.004638672,1.0144043,0.36621094,-2.5024414,-0.91552734
5733023,0.004272461,-0.005126953,1.0150146,0.48828125,-2.380371,-0.8544922
5733003,0.004638672,-0.0043945312,1.0159912,0.4272461,-2.4414062,-0.9765625
5733013,0.0053710938,-0.004272461,1.0151367,0.48828125,-2.380371,-0.79345703
5733023,0.004272461,-0.005126953,1.0150146,0.48828125,-2.380371,-0.8544922
5733033,0.0043945312,-0.0057373047,1.0162354,0.4272461,-2.4414062,-0.79345703
5733033,0.0043945312,-0.0057373047,1.0162354,0.4272461,-2.4414062,-0.79345703
5733043,0.0040283203,-0.005004883,1.0164795,0.4272461,-2.380371,-0.8544922
5733043,0.0040283203,-0.005004883,1.0164795,0.4272461,-2.380371,-0.8544922
5733053,0.004272461,-0.0040283203,1.0169678,0.4272461,-2.5024414,-0.79345703
5733053,0.004272461,-0.0040283203,1.0169678,0.4272461,-2.5024414,-0.79345703
5733063,0.004272461,-0.0034179688,1.0158691,0.48828125,-2.5024414,-0.79345703
5733063,0.004272461,-0.0034179688,1.0158691,0.48828125,-2.5024414,-0.79345703
5733073,0.0048828125,-0.0045166016,1.0140381,0.48828125,-2.4414062,-0.79345703
5733073,0.0048828125,-0.0045166016,1.0140381,0.48828125,-2.4414062,-0.79345703
5733083,0.004272461,-0.0056152344,1.0151367,0.4272461,-2.5024414,-0.79345703
5733083,0.004272461,-0.0056152344,1.0151367,0.4272461,-2.5024414,-0.79345703
5733093,0.0037841797,-0.0045166016,1.0153809,0.36621094,-2.4414062,-0.79345703
5733093,0.0037841797,-0.0045166016,1.0153809,0.36621094,-2.4414062,-0.79345703
5733103,0.005004883,-0.005004883,1.015625,0.48828125,-2.380371,-0.8544922
5733103,0.005004883,-0.005004883,1.015625,0.48828125,-2.380371,-0.8544922
5733113,0.0034179688,-0.0043945312,1.0153809,0.48828125,-2.4414062,-0.8544922
5733113,0.0034179688,-0.0043945312,1.0153809,0.48828125,-2.4414062,-0.8544922
5733123,0.0043945312,-0.0048828125,1.0158691,0.5493164,-2.5634766,-0.8544922
5733123,0.0043945312,-0.0048828125,1.0158691,0.5493164,-2.5634766,-0.8544922
5733133,0.0052490234,-0.004272461,1.0147705,0.5493164,-2.5024414,-0.8544922
5733133,0.0052490234,-0.004272461,1.0147705,0.5493164,-2.5024414,-0.8544922
5733153,0.0045166016,-0.004272461,1.0146484,0.48828125,-2.5634766,-0.79345703
5733153,0.0045166016,-0.004272461,1.0146484,0.48828125,-2.5634766,-0.79345703
5733173,0.004272461,-0.004638672,1.0153809,0.48828125,-2.380371,-0.79345703
5733173,0.004272461,-0.004638672,1.0153809,0.48828125,-2.380371,-0.79345703
5733183,0.004272461,-0.005004883,1.0146484,0.4272461,-2.5024414,-0.79345703
5733183,0.004272461,-0.005004883,1.0146484,0.4272461,-2.5024414,-0.79345703
5733193,0.003540039,-0.0041503906,1.0150146,0.48828125,-2.5024414,-0.8544922
5733193,0.003540039,-0.0041503906,1.0150146,0.48828125,-2.5024414,-0.8544922
5733203,0.0040283203,-0.0043945312,1.0151367,0.5493164,-2.4414062,-0.8544922
5733203,0.0040283203,-0.0043945312,1.0151367,0.5493164,-2.4414062,-0.8544922
5733213,0.0041503906,-0.0045166016,1.0141602,0.48828125,-2.5634766,-0.79345703
5733213,0.0041503906,-0.0045166016,1.0141602,0.48828125,-2.5634766,-0.79345703
5733223,0.004760742,-0.005126953,1.0146484,0.48828125,-2.5634766,-0.79345703
5733223,0.004760742,-0.005126953,1.0146484,0.48828125,-2.5634766,-0.79345703
5733233,0.005126953,-0.0043945312,1.0153809,0.4272461,-2.5024414,-0.8544922
5733233,0.005126953,-0.0043945312,1.0153809,0.4272461,-2.5024414,-0.8544922
5733243,0.005493164,-0.005126953,1.0144043,0.4272461,-2.4414062,-0.79345703
5733253,0.0052490234,-0.0052490234,1.0148926,0.48828125,-2.5024414,-0.79345703
5733243,0.005493164,-0.005126953,1.0144043,0.4272461,-2.4414062,-0.79345703
5733263,0.0061035156,-0.005493164,1.0168457,0.61035156,-2.5024414,-0.8544922
5733253,0.0052490234,-0.0052490234,1.0148926,0.48828125,-2.5024414,-0.79345703
5733273,0.0056152344,-0.005493164,1.0155029,0.48828125,-2.5024414,-0.8544922
5733263,0.0061035156,-0.005493164,1.0168457,0.61035156,-2.5024414,-0.8544922
5733273,0.0056152344,-0.005493164,1.0155029,0.48828125,-2.5024414,-0.8544922
5733283,0.0059814453,-0.0061035156,1.0162354,0.5493164,-2.5024414,-0.79345703
5733283,0.0059814453,-0.0061035156,1.0162354,0.5493164,-2.5024414,-0.79345703
5733293,0.0059814453,-0.0048828125,1.0144043,0.48828125,-2.5024414,-0.8544922
5733293,0.0059814453,-0.0048828125,1.0144043,0.48828125,-2.5024414,-0.8544922
5733313,0.005004883,-0.0043945312,1.0148926,0.4272461,-2.319336,-0.91552734
5733313,0.005004883,-0.0043945312,1.0148926,0.4272461,-2.319336,-0.91552734
5733333,0.0048828125,-0.0043945312,1.0146484,0.4272461,-2.4414062,-0.79345703
5733333,0.0048828125,-0.0043945312,1.0146484,0.4272461,-2.4414062,-0.79345703
5733343,0.0037841797,-0.0052490234,1.0145264,0.4272461,-2.5024414,-0.8544922
5733343,0.0037841797,-0.0052490234,1.0145264,0.4272461,-2.5024414,-0.8544922
5733353,0.0032958984,-0.0045166016,1.015625,0.48828125,-2.5024414,-0.8544922
5733353,0.0032958984,-0.0045166016,1.015625,0.48828125,-2.5024414,-0.8544922
5733363,0.004272461,-0.0045166016,1.0151367,0.48828125,-2.5024414,-0.79345703
5733373,0.004272461,-0.004760742,1.0144043,0.5493164,-2.4414062,-0.8544922
5733363,0.004272461,-0.0045166016,1.0151367,0.48828125,-2.5024414,-0.79345703
5733373,0.004272461,-0.004760742,1.0144043,0.5493164,-2.4414062,-0.8544922
5733383,0.0040283203,-0.004760742,1.0145264,0.48828125,-2.5024414,-0.79345703
5733383,0.0040283203,-0.004760742,1.0145264,0.48828125,-2.5024414,-0.79345703
5733393,0.004638672,-0.0048828125,1.0151367,0.48828125,-2.6245117,-0.8544922
5733403,0.0052490234,-0.004760742,1.0146484,0.48828125,-2.5024414,-0.79345703
5733393,0.004638672,-0.0048828125,1.0151367,0.48828125,-2.6245117,-0.8544922
5733413,0.005004883,-0.0045166016,1.0145264,0.48828125,-2.5024414,-0.79345703
5733403,0.0052490234,-0.004760742,1.0146484,0.48828125,-2.5024414,-0.79345703
5733423,0.004638672,-0.004272461,1.0151367,0.48828125,-2.4414062,-0.8544922
5733413,0.005004883,-0.0045166016,1.0145264,0.48828125,-2.5024414,-0.79345703
5733423,0.004638672,-0.004272461,1.0151367,0.48828125,-2.4414062,-0.8544922
5733433,0.0052490234,-0.004638672,1.0152588,0.5493164,-2.4414062,-0.8544922
5733433,0.0052490234,-0.004638672,1.0152588,0.5493164,-2.4414062,-0.8544922
5733443,0.0041503906,-0.004638672,1.0145264,0.48828125,-2.4414062,-0.7324219
5733443,0.0041503906,-0.004638672,1.0145264,0.48828125,-2.4414062,-0.7324219
5733453,0.004638672,-0.0048828125,1.0144043,0.4272461,-2.380371,-0.79345703
5733453,0.004638672,-0.0048828125,1.0144043,0.4272461,-2.380371,-0.79345703
5733463,0.004272461,-0.005126953,1.0157471,0.4272461,-2.380371,-0.8544922
5733463,0.004272461,-0.005126953,1.0157471,0.4272461,-2.380371,-0.8544922
5733483,0.0056152344,-0.004272461,1.015625,0.48828125,-2.5024414,-0.79345703
5733483,0.0056152344,-0.004272461,1.015625,0.48828125,-2.5024414,-0.79345703
5733503,0.0052490234,-0.004638672,1.0140381,0.4272461,-2.4414062,-0.79345703
5733503,0.0052490234,-0.004638672,1.0140381,0.4272461,-2.4414062,-0.79345703
5733513,0.004272461,-0.004638672,1.0145264,0.48828125,-2.5634766,-0.79345703
5733513,0.004272461,-0.004638672,1.0145264,0.48828125,-2.5634766,-0.79345703
5733523,0.0048828125,-0.005126953,1.0151367,0.48828125,-2.5634766,-0.79345703
5733523,0.0048828125,-0.005126953,1.0151367,0.48828125,-2.5634766,-0.79345703
5733533,0.0052490234,-0.0053710938,1.0151367,0.48828125,-2.5024414,-0.79345703
5733533,0.0052490234,-0.0053710938,1.0151367,0.48828125,-2.5024414,-0.79345703
5733543,0.005493164,-0.005126953,1.0158691,0.36621094,-2.4414062,-0.79345703
5733543,0.005493164,-0.005126953,1.0158691,0.36621094,-2.4414062,-0.79345703
5733553,0.0053710938,-0.004638672,1.0136719,0.4272461,-2.5024414,-0.8544922
5733553,0.0053710938,-0.004638672,1.0136719,0.4272461,-2.5024414,-0.8544922
5733563,0.0053710938,-0.004638672,1.0147705,0.5493164,-2.4414062,-0.8544922
5733573,0.0053710938,-0.0041503906,1.0146484,0.4272461,-2.380371,-0.8544922
5733563,0.0053710938,-0.004638672,1.0147705,0.5493164,-2.4414062,-0.8544922
5733583,0.003540039,-0.005004883,1.0152588,0.4272461,-2.380371,-0.91552734
5733573,0.0053710938,-0.0041503906,1.0146484,0.4272461,-2.380371,-0.8544922
5733583,0.003540039,-0.005004883,1.0152588,0.4272461,-2.380371,-0.91552734
5733593,0.003540039,-0.004760742,1.0151367,0.4272461,-2.4414062,-0.91552734
5733603,0.0052490234,-0.0037841797,1.0153809,0.36621094,-2.5024414,-0.8544922
5733593,0.003540039,-0.004760742,1.0151367,0.4272461,-2.4414062,-0.91552734
5733613,0.0032958984,-0.004638672,1.0146484,0.48828125,-2.5024414,-0.91552734
5733603,0.0052490234,-0.0037841797,1.0153809,0.36621094,-2.5024414,-0.8544922
5733623,0.0036621094,-0.0043945312,1.0158691,0.5493164,-2.5024414,-0.79345703
5733613,0.0032958984,-0.004638672,1.0146484,0.48828125,-2.5024414,-0.91552734
5733643,0.0034179688,-0.0043945312,1.0152588,0.4272461,-2.4414062,-0.8544922
5733663,0.0040283203,-0.004638672,1.0140381,0.48828125,-2.5024414,-0.7324219
5733623,0.0036621094,-0.0043945312,1.0158691,0.5493164,-2.5024414,-0.79345703
5733673,0.0048828125,-0.004760742,1.0147705,0.4272461,-2.4414062,-0.7324219
5733643,0.0034179688,-0.0043945312,1.0152588,0.4272461,-2.4414062,-0.8544922
5733683,0.004760742,-0.005004883,1.0147705,0.48828125,-2.4414062,-0.79345703
5733663,0.0040283203,-0.004638672,1.0140381,0.48828125,-2.5024414,-0.7324219
5733673,0.0048828125,-0.004760742,1.0147705,0.4272461,-2.4414062,-0.7324219
5733683,0.004760742,-0.005004883,1.0147705,0.48828125,-2.4414062,-0.79345703
5733693,0.0063476562,-0.005126953,1.0159912,0.5493164,-2.4414062,-0.8544922
5733693,0.0063476562,-0.005126953,1.0159912,0.5493164,-2.4414062,-0.8544922
5733703,0.005859375,-0.005493164,1.0157471,0.48828125,-2.4414062,-0.79345703
5733703,0.005859375,-0.005493164,1.0157471,0.48828125,-2.4414062,-0.79345703
5733713,0.005004883,-0.005126953,1.0145264,0.5493164,-2.5024414,-0.8544922
5733713,0.005004883,-0.005126953,1.0145264,0.5493164,-2.5024414,-0.8544922
5733723,0.0057373047,-0.004760742,1.0140381,0.48828125,-2.4414062,-0.8544922
5733723,0.0057373047,-0.004760742,1.0140381,0.48828125,-2.4414062,-0.8544922
5733733,0.0053710938,-0.005126953,1.0148926,0.48828125,-2.5634766,-0.8544922
5733733,0.0053710938,-0.005126953,1.0148926,0.48828125,-2.5634766,-0.8544922
5733743,0.005493164,-0.004760742,1.0155029,0.5493164,-2.5024414,-0.7324219
5733743,0.005493164,-0.004760742,1.0155029,0.5493164,-2.5024414,-0.7324219
5733753,0.00390625,-0.0053710938,1.0151367,0.5493164,-2.5024414,-0.7324219
5733763,0.00390625,-0.004760742,1.0151367,0.4272461,-2.4414062,-0.79345703
5733753,0.00390625,-0.0053710938,1.0151367,0.5493164,-2.5024414,-0.7324219
5733773,0.0036621094,-0.005126953,1.0146484,0.48828125,-2.380371,-0.8544922
5733763,0.00390625,-0.004760742,1.0151367,0.4272461,-2.4414062,-0.79345703
5733783,0.004638672,-0.0053710938,1.0157471,0.48828125,-2.380371,-0.8544922
5733773,0.0036621094,-0.005126953,1.0146484,0.48828125,-2.380371,-0.8544922
5733783,0.004638672,-0.0053710938,1.0157471,0.48828125,-2.380371,-0.8544922
5733793,0.0048828125,-0.004638672,1.013916,0.5493164,-2.5634766,-0.7324219
5733793,0.0048828125,-0.004638672,1.013916,0.5493164,-2.5634766,-0.7324219
5733813,0.004272461,-0.004638672,1.0144043,0.48828125,-2.4414062,-0.79345703
5733813,0.004272461,-0.004638672,1.0144043,0.48828125,-2.4414062,-0.79345703
5733833,0.0045166016,-0.0045166016,1.0146484,0.5493164,-2.5024414,-0.79345703
5733833,0.0045166016,-0.0045166016,1.0146484,0.5493164,-2.5024414,-0.79345703
5733843,0.005004883,-0.004760742,1.0146484,0.48828125,-2.5024414,-0.79345703
5733843,0.005004883,-0.004760742,1.0146484,0.48828125,-2.5024414,-0.79345703
5733853,0.0040283203,-0.005126953,1.0161133,0.4272461,-2.4414062,-0.79345703
5733853,0.0040283203,-0.005126953,1.0161133,0.4272461,-2.4414062,-0.79345703
5733863,0.004272461,-0.0052490234,1.0162354,0.48828125,-2.4414062,-0.8544922
5733863,0.004272461,-0.0052490234,1.0162354,0.48828125,-2.4414062,-0.8544922
5733873,0.0037841797,-0.0052490234,1.0152588,0.5493164,-2.380371,-0.8544922
5733873,0.0037841797,-0.0052490234,1.0152588,0.5493164,-2.380371,-0.8544922
5733883,0.0048828125,-0.005493164,1.0166016,0.48828125,-2.5024414,-0.8544922
5733883,0.0048828125,-0.005493164,1.0166016,0.48828125,-2.5024414,-0.8544922
5733893,0.0052490234,-0.004760742,1.0162354,0.4272461,-2.4414062,-0.8544922
5733893,0.0052490234,-0.004760742,1.0162354,0.4272461,-2.4414062,-0.8544922
5733903,0.005126953,-0.0041503906,1.0152588,0.48828125,-2.380371,-0.8544922
5733903,0.005126953,-0.0041503906,1.0152588,0.48828125,-2.380371,-0.8544922
5733913,0.0040283203,-0.004638672,1.0144043,0.48828125,-2.319336,-0.79345703
5733913,0.0040283203,-0.004638672,1.0144043,0.48828125,-2.319336,-0.79345703
5733923,0.0041503906,-0.005004883,1.0151367,0.5493164,-2.380371,-0.8544922
5733923,0.0041503906,-0.005004883,1.0151367,0.5493164,-2.380371,-0.8544922
5733933,0.0037841797,-0.005004883,1.0153809,0.48828125,-2.4414062,-0.79345703
5733933,0.0037841797,-0.005004883,1.0153809,0.48828125,-2.4414062,-0.79345703
5733943,0.004272461,-0.0037841797,1.0151367,0.48828125,-2.5024414,-0.79345703
5733943,0.004272461,-0.0037841797,1.0151367,0.48828125,-2.5024414,-0.79345703
5733953,0.004272461,-0.0045166016,1.0159912,0.4272461,-2.4414062,-0.79345703
5733953,0.004272461,-0.0045166016,1.0159912,0.4272461,-2.4414062,-0.79345703
5733973,0.0048828125,-0.0043945312,1.0163574,0.48828125,-2.5634766,-0.91552734
5733973,0.0048828125,-0.0043945312,1.0163574,0.48828125,-2.5634766,-0.91552734
5733993,0.004638672,-0.005126953,1.0153809,0.48828125,-2.4414062,-0.79345703
5733993,0.004638672,-0.005126953,1.0153809,0.48828125,-2.4414062,-0.79345703
5734003,0.0052490234,-0.005004883,1.0153809,0.48828125,-2.380371,-0.7324219
5734003,0.0052490234,-0.005004883,1.0153809,0.48828125,-2.380371,-0.7324219
5734013,0.0045166016,-0.005004883,1.0157471,0.4272461,-2.5024414,-0.79345703
5734013,0.0045166016,-0.005004883,1.0157471,0.4272461,-2.5024414,-0.79345703
5734023,0.0041503906,-0.0048828125,1.0153809,0.5493164,-2.5024414,-0.79345703
5734023,0.0041503906,-0.0048828125,1.0153809,0.5493164,-2.5024414,-0.79345703
5734033,0.005126953,-0.0036621094,1.0150146,0.5493164,-2.5024414,-0.79345703
5734033,0.005126953,-0.0036621094,1.0150146,0.5493164,-2.5024414,-0.79345703
5734043,0.004760742,-0.0041503906,1.0148926,0.48828125,-2.4414062,-0.79345703
5734043,0.004760742,-0.0041503906,1.0148926,0.48828125,-2.4414062,-0.79345703
5734053,0.005126953,-0.0048828125,1.0155029,0.5493164,-2.5024414,-0.79345703
5734053,0.005126953,-0.0048828125,1.0155029,0.5493164,-2.5024414,-0.79345703
5734063,0.0034179688,-0.004760742,1.0151367,0.48828125,-2.5024414,-0.79345703
5734063,0.0034179688,-0.004760742,1.0151367,0.48828125,-2.5024414,-0.79345703
5734073,0.005004883,-0.004760742,1.0148926,0.4272461,-2.5024414,-0.79345703
5734083,0.005493164,-0.0048828125,1.0153809,0.48828125,-2.4414062,-0.7324219
5734073,0.005004883,-0.004760742,1.0148926,0.4272461,-2.5024414,-0.79345703
5734083,0.005493164,-0.0048828125,1.0153809,0.48828125,-2.4414062,-0.7324219
5734093,0.004638672,-0.0052490234,1.0155029,0.4272461,-2.5024414,-0.79345703
5734093,0.004638672,-0.0052490234,1.0155029,0.4272461,-2.5024414,-0.79345703
5734103,0.004638672,-0.0048828125,1.0152588,0.4272461,-2.4414062,-0.8544922
5734103,0.004638672,-0.0048828125,1.0152588,0.4272461,-2.4414062,-0.8544922
5734113,0.0045166016,-0.004760742,1.0146484,0.4272461,-2.4414062,-0.91552734
5734113,0.0045166016,-0.004760742,1.0146484,0.4272461,-2.4414062,-0.91552734
5734123,0.005493164,-0.0053710938,1.0152588,0.4272461,-2.380371,-0.79345703
5734123,0.005493164,-0.0053710938,1.0152588,0.4272461,-2.380371,-0.79345703
5734143,0.0053710938,-0.0043945312,1.0159912,0.4272461,-2.4414062,-0.8544922
5734143,0.0053710938,-0.0043945312,1.0159912,0.4272461,-2.4414062,-0.8544922
5734153,0.0048828125,-0.005004883,1.0146484,0.4272461,-2.380371,-0.8544922
5734163,0.004760742,-0.0048828125,1.0155029,0.48828125,-2.380371,-0.91552734
5734153,0.0048828125,-0.005004883,1.0146484,0.4272461,-2.380371,-0.8544922
5734163,0.004760742,-0.0048828125,1.0155029,0.48828125,-2.380371,-0.91552734
5734173,0.0056152344,-0.005126953,1.0164795,0.36621094,-2.380371,-0.8544922
5734173,0.0056152344,-0.005126953,1.0164795,0.36621094,-2.380371,-0.8544922
5734183,0.0045166016,-0.004638672,1.0155029,0.48828125,-2.4414062,-0.79345703
5734183,0.0045166016,-0.004638672,1.0155029,0.48828125,-2.4414062,-0.79345703
5734193,0.0056152344,-0.0048828125,1.0153809,0.5493164,-2.5024414,-0.8544922
5734193,0.0056152344,-0.0048828125,1.0153809,0.5493164,-2.5024414,-0.8544922
5734203,0.0041503906,-0.005493164,1.015625,0.48828125,-2.4414062,-0.8544922
5734203,0.0041503906,-0.005493164,1.015625,0.48828125,-2.4414062,-0.8544922
5734213,0.0040283203,-0.005004883,1.0151367,0.48828125,-2.4414062,-0.79345703
5734213,0.0040283203,-0.005004883,1.0151367,0.48828125,-2.4414062,-0.79345703
5734223,0.0048828125,-0.0045166016,1.0150146,0.4272461,-2.4414062,-0.79345703
5734233,0.004638672,-0.0053710938,1.017334,0.48828125,-2.5024414,-0.79345703
5734223,0.0048828125,-0.0045166016,1.0150146,0.4272461,-2.4414062,-0.79345703
5734233,0.004638672,-0.0053710938,1.017334,0.48828125,-2.5024414,-0.79345703
5734243,0.0045166016,-0.004638672,1.0167236,0.48828125,-2.5024414,-0.79345703
5734243,0.0045166016,-0.004638672,1.0167236,0.48828125,-2.5024414,-0.79345703
5734253,0.0043945312,-0.0043945312,1.0150146,0.48828125,-2.4414062,-0.91552734
5734253,0.0043945312,-0.0043945312,1.0150146,0.48828125,-2.4414062,-0.91552734
5734263,0.0043945312,-0.005004883,1.0152588,0.36621094,-2.4414062,-0.79345703
5734263,0.0043945312,-0.005004883,1.0152588,0.36621094,-2.4414062,-0.79345703
5734273,0.005004883,-0.004272461,1.0159912,0.4272461,-2.4414062,-0.8544922
5734273,0.005004883,-0.004272461,1.0159912,0.4272461,-2.4414062,-0.8544922
5734283,0.0040283203,-0.0034179688,1.0172119,0.48828125,-2.5634766,-0.8544922
5734283,0.0040283203,-0.0034179688,1.0172119,0.48828125,-2.5634766,-0.8544922
5734303,0.004272461,-0.004760742,1.0159912,0.48828125,-2.5024414,-0.79345703
5734303,0.004272461,-0.004760742,1.0159912,0.48828125,-2.5024414,-0.79345703
5734323,0.0041503906,-0.004272461,1.015625,0.48828125,-2.5634766,-0.79345703
5734323,0.0041503906,-0.004272461,1.015625,0.48828125,-2.5634766,-0.79345703
5734333,0.0052490234,-0.004760742,1.0162354,0.5493164,-2.5024414,-0.79345703
5734333,0.0052490234,-0.004760742,1.0162354,0.5493164,-2.5024414,-0.79345703
5734343,0.0048828125,-0.004760742,1.0141602,0.5493164,-2.5024414,-0.7324219
5734343,0.0048828125,-0.004760742,1.0141602,0.5493164,-2.5024414,-0.7324219
5734353,0.006225586,-0.004760742,1.0159912,0.5493164,-2.5634766,-0.7324219
5734353,0.006225586,-0.004760742,1.0159912,0.5493164,-2.5634766,-0.7324219
5734363,0.005126953,-0.004760742,1.0151367,0.48828125,-2.5634766,-0.79345703
5734363,0.005126953,-0.004760742,1.0151367,0.48828125,-2.5634766,-0.79345703
5734373,0.005493164,-0.004638672,1.0147705,0.48828125,-2.5024414,-0.8544922
5734373,0.005493164,-0.004638672,1.0147705,0.48828125,-2.5024414,-0.8544922
5734383,0.0052490234,-0.005859375,1.0161133,0.48828125,-2.319336,-0.91552734
5734383,0.0052490234,-0.005859375,1.0161133,0.48828125,-2.319336,-0.91552734
5734393,0.0059814453,-0.0052490234,1.0159912,0.4272461,-2.380371,-0.91552734
5734403,0.0041503906,-0.0056152344,1.015625,0.4272461,-2.4414062,-0.8544922
5734393,0.0059814453,-0.0052490234,1.0159912,0.4272461,-2.380371,-0.91552734
5734413,0.0045166016,-0.005004883,1.0158691,0.48828125,-2.380371,-0.8544922
5734403,0.0041503906,-0.0056152344,1.015625,0.4272461,-2.4414062,-0.8544922
5734423,0.0045166016,-0.005126953,1.0145264,0.5493164,-2.5024414,-0.79345703
5734413,0.0045166016,-0.005004883,1.0158691,0.48828125,-2.380371,-0.8544922
5734423,0.0045166016,-0.005126953,1.0145264,0.5493164,-2.5024414,-0.79345703
5734433,0.0034179688,-0.004760742,1.0150146,0.4272461,-2.5024414,-0.79345703
5734443,0.0048828125,-0.0045166016,1.0147705,0.48828125,-2.4414062,-0.79345703
5734433,0.0034179688,-0.004760742,1.0150146,0.4272461,-2.5024414,-0.79345703
5734463,0.0048828125,-0.0048828125,1.015625,0.5493164,-2.5024414,-0.79345703
5734443,0.0048828125,-0.0045166016,1.0147705,0.48828125,-2.4414062,-0.79345703
5734463,0.0048828125,-0.0048828125,1.015625,0.5493164,-2.5024414,-0.79345703
5734483,0.005004883,-0.0045166016,1.0155029,0.48828125,-2.5024414,-0.79345703
5734483,0.005004883,-0.0045166016,1.0155029,0.48828125,-2.5024414,-0.79345703
5734493,0.0045166016,-0.004638672,1.0153809,0.48828125,-2.5024414,-0.7324219
5734493,0.0045166016,-0.004638672,1.0153809,0.48828125,-2.5024414,-0.7324219
5734503,0.0052490234,-0.0041503906,1.0152588,0.48828125,-2.5024414,-0.79345703
5734503,0.0052490234,-0.0041503906,1.0152588,0.48828125,-2.5024414,-0.79345703
5734513,0.0045166016,-0.004760742,1.0147705,0.4272461,-2.5024414,-0.79345703
5734513,0.0045166016,-0.004760742,1.0147705,0.4272461,-2.5024414,-0.79345703
5734523,0.005493164,-0.0036621094,1.015625,0.4272461,-2.380371,-0.79345703
5734523,0.005493164,-0.0036621094,1.015625,0.4272461,-2.380371,-0.79345703
5734533,0.005004883,-0.0040283203,1.0157471,0.48828125,-2.380371,-0.8544922
5734533,0.005004883,-0.0040283203,1.0157471,0.48828125,-2.380371,-0.8544922
5734543,0.0037841797,-0.005004883,1.0157471,0.5493164,-2.4414062,-0.79345703
5734553,0.004272461,-0.0052490234,1.0164795,0.48828125,-2.4414062,-0.8544922
5734543,0.0037841797,-0.005004883,1.0157471,0.5493164,-2.4414062,-0.79345703
5734563,0.0036621094,-0.004638672,1.0161133,0.5493164,-2.4414062,-0.8544922
5734553,0.004272461,-0.0052490234,1.0164795,0.48828125,-2.4414062,-0.8544922
5734573,0.004638672,-0.004272461,1.0161133,0.5493164,-2.4414062,-0.7324219
5734563,0.0036621094,-0.004638672,1.0161133,0.5493164,-2.4414062,-0.8544922
5734573,0.004638672,-0.004272461,1.0161133,0.5493164,-2.4414062,-0.7324219
5734583,0.005126953,-0.0043945312,1.0151367,0.61035156,-2.5024414,-0.8544922
5734583,0.005126953,-0.0043945312,1.0151367,0.61035156,-2.5024414,-0.8544922
5734593,0.0040283203,-0.0048828125,1.0140381,0.48828125,-2.4414062,-0.8544922
5734593,0.0040283203,-0.0048828125,1.0140381,0.48828125,-2.4414062,-0.8544922
5734603,0.005004883,-0.0048828125,1.0155029,0.4272461,-2.5024414,-0.79345703
5734603,0.005004883,-0.0048828125,1.0155029,0.4272461,-2.5024414,-0.79345703
5734613,0.0040283203,-0.0048828125,1.0152588,0.48828125,-2.5024414,-0.8544922
5734613,0.0040283203,-0.0048828125,1.0152588,0.48828125,-2.5024414,-0.8544922
